time,.header.seq,.header.stamp.secs,.header.stamp.nsecs,.header.frame_id,.orientation.x,.orientation.y,.orientation.z,.orientation.w,.orientation_covariance,.angular_velocity.x,.angular_velocity.y,.angular_velocity.z,.angular_velocity_covariance,.linear_acceleration.x,.linear_acceleration.y,.linear_acceleration.z,.linear_acceleration_covariance
1970/01/01/01:00:10.732000,0,10,731000000,base_link,0.000210887993677,-6.10813404358e-05,-0.674830125749,-0.737973070767,"(1.0, 0.0, 0.0, 0.0, 1.0, 0.0, 0.0, 0.0, 1.0)",-0.00454602064565,-0.0104167126119,0.00853485241532,"(1.2184696791468346e-07, 0.0, 0.0, 0.0, 1.2184696791468346e-07, 0.0, 0.0, 0.0, 1.2184696791468346e-07)",0.0,0.0,0.0,"(-1.0, 0.0, 0.0, 0.0, 8.999999999999999e-08, 0.0, 0.0, 0.0, 8.999999999999999e-08)"
1970/01/01/01:00:10.732000,1,10,732000000,base_link,0.000210887997263,-6.1081335639e-05,-0.674830150346,-0.737973094182,"(1.0, 0.0, 0.0, 0.0, 1.0, 0.0, 0.0, 0.0, 1.0)",-0.00454602064565,-0.0104167126119,0.00853485241532,"(1.2184696791468346e-07, 0.0, 0.0, 0.0, 1.2184696791468346e-07, 0.0, 0.0, 0.0, 1.2184696791468346e-07)",0.0,0.0,0.0,"(-1.0, 0.0, 0.0, 0.0, 8.999999999999999e-08, 0.0, 0.0, 0.0, 8.999999999999999e-08)"
1970/01/01/01:00:10.750000,2,10,750000000,base_link,0.000255232712344,-4.7918579533e-05,-0.674844214223,-0.737960294711,"(1.0, 0.0, 0.0, 0.0, 1.0, 0.0, 0.0, 0.0, 1.0)",-0.00668479315937,0.00475696939975,0.00262843212113,"(1.2184696791468346e-07, 0.0, 0.0, 0.0, 1.2184696791468346e-07, 0.0, 0.0, 0.0, 1.2184696791468346e-07)",0.0,0.0,0.0,"(-1.0, 0.0, 0.0, 0.0, 8.999999999999999e-08, 0.0, 0.0, 0.0, 8.999999999999999e-08)"
1970/01/01/01:00:10.771000,3,10,771000000,base_link,0.000281491001568,-6.67230092657e-05,-0.675013012351,-0.737805910805,"(1.0, 0.0, 0.0, 0.0, 1.0, 0.0, 0.0, 0.0, 1.0)",0.00771476421505,-0.00268456945196,0.0427041277289,"(1.2184696791468346e-07, 0.0, 0.0, 0.0, 1.2184696791468346e-07, 0.0, 0.0, 0.0, 1.2184696791468346e-07)",0.0,0.0,0.0,"(-1.0, 0.0, 0.0, 0.0, 8.999999999999999e-08, 0.0, 0.0, 0.0, 8.999999999999999e-08)"
1970/01/01/01:00:10.790000,4,10,790000000,base_link,0.000345981380315,-0.000141328713974,-0.67557992961,-0.737286703778,"(1.0, 0.0, 0.0, 0.0, 1.0, 0.0, 0.0, 0.0, 1.0)",-0.00468359328806,0.0106091089547,0.103594452143,"(1.2184696791468346e-07, 0.0, 0.0, 0.0, 1.2184696791468346e-07, 0.0, 0.0, 0.0, 1.2184696791468346e-07)",0.0,0.0,0.0,"(-1.0, 0.0, 0.0, 0.0, 8.999999999999999e-08, 0.0, 0.0, 0.0, 8.999999999999999e-08)"
1970/01/01/01:00:10.810000,5,10,810000000,base_link,0.000332356084155,-0.000148627537682,-0.676653915604,-0.736301226166,"(1.0, 0.0, 0.0, 0.0, 1.0, 0.0, 0.0, 0.0, 1.0)",0.000397104828153,-0.00576158147305,0.159875839949,"(1.2184696791468346e-07, 0.0, 0.0, 0.0, 1.2184696791468346e-07, 0.0, 0.0, 0.0, 1.2184696791468346e-07)",0.0,0.0,0.0,"(-1.0, 0.0, 0.0, 0.0, 8.999999999999999e-08, 0.0, 0.0, 0.0, 8.999999999999999e-08)"
1970/01/01/01:00:10.830000,6,10,831000000,base_link,0.000308284152409,-0.000113849051063,-0.677975680286,-0.735084322843,"(1.0, 0.0, 0.0, 0.0, 1.0, 0.0, 0.0, 0.0, 1.0)",0.000281507440377,-0.00419077975675,0.188103601336,"(1.2184696791468346e-07, 0.0, 0.0, 0.0, 1.2184696791468346e-07, 0.0, 0.0, 0.0, 1.2184696791468346e-07)",0.0,0.0,0.0,"(-1.0, 0.0, 0.0, 0.0, 8.999999999999999e-08, 0.0, 0.0, 0.0, 8.999999999999999e-08)"
1970/01/01/01:00:10.851000,7,10,851000000,base_link,0.000339149053073,-9.27413927828e-05,-0.67923459348,-0.733921082995,"(1.0, 0.0, 0.0, 0.0, 1.0, 0.0, 0.0, 0.0, 1.0)",-0.00587189616635,-0.00277146650478,0.174911022186,"(1.2184696791468346e-07, 0.0, 0.0, 0.0, 1.2184696791468346e-07, 0.0, 0.0, 0.0, 1.2184696791468346e-07)",0.0,0.0,0.0,"(-1.0, 0.0, 0.0, 0.0, 8.999999999999999e-08, 0.0, 0.0, 0.0, 8.999999999999999e-08)"
1970/01/01/01:00:10.871000,8,10,871000000,base_link,0.000375337277689,-6.93819444552e-05,-0.680665687087,-0.732594007811,"(1.0, 0.0, 0.0, 0.0, 1.0, 0.0, 0.0, 0.0, 1.0)",-0.0030802693218,-0.00569615559652,0.163705781102,"(1.2184696791468346e-07, 0.0, 0.0, 0.0, 1.2184696791468346e-07, 0.0, 0.0, 0.0, 1.2184696791468346e-07)",0.0,0.0,0.0,"(-1.0, 0.0, 0.0, 0.0, 8.999999999999999e-08, 0.0, 0.0, 0.0, 8.999999999999999e-08)"
1970/01/01/01:00:10.891000,9,10,890000000,base_link,0.00044599932977,-1.85551706364e-05,-0.681816048439,-0.731523556884,"(1.0, 0.0, 0.0, 0.0, 1.0, 0.0, 0.0, 0.0, 1.0)",-0.0115385893732,0.00136608246248,0.160678043962,"(1.2184696791468346e-07, 0.0, 0.0, 0.0, 1.2184696791468346e-07, 0.0, 0.0, 0.0, 1.2184696791468346e-07)",0.0,0.0,0.0,"(-1.0, 0.0, 0.0, 0.0, 8.999999999999999e-08, 0.0, 0.0, 0.0, 8.999999999999999e-08)"
1970/01/01/01:00:10.911000,10,10,911000000,base_link,0.000454980395134,-2.90159031915e-05,-0.682637611688,-0.730756953124,"(1.0, 0.0, 0.0, 0.0, 1.0, 0.0, 0.0, 0.0, 1.0)",-0.00108336226549,0.000746563950088,0.135450065136,"(1.2184696791468346e-07, 0.0, 0.0, 0.0, 1.2184696791468346e-07, 0.0, 0.0, 0.0, 1.2184696791468346e-07)",0.0,0.0,0.0,"(-1.0, 0.0, 0.0, 0.0, 8.999999999999999e-08, 0.0, 0.0, 0.0, 8.999999999999999e-08)"
1970/01/01/01:00:10.930000,11,10,930000000,base_link,0.000457886696104,4.22351757931e-05,-0.683607400136,-0.729849879188,"(1.0, 0.0, 0.0, 0.0, 1.0, 0.0, 0.0, 0.0, 1.0)",-0.00347745534964,-0.00770869012922,0.137889161706,"(1.2184696791468346e-07, 0.0, 0.0, 0.0, 1.2184696791468346e-07, 0.0, 0.0, 0.0, 1.2184696791468346e-07)",0.0,0.0,0.0,"(-1.0, 0.0, 0.0, 0.0, 8.999999999999999e-08, 0.0, 0.0, 0.0, 8.999999999999999e-08)"
1970/01/01/01:00:10.951000,12,10,951000000,base_link,0.000441433023311,3.61398730429e-05,-0.684513889285,-0.728999698228,"(1.0, 0.0, 0.0, 0.0, 1.0, 0.0, 0.0, 0.0, 1.0)",0.000373538816348,0.000150227919221,0.124251708388,"(1.2184696791468346e-07, 0.0, 0.0, 0.0, 1.2184696791468346e-07, 0.0, 0.0, 0.0, 1.2184696791468346e-07)",0.0,0.0,0.0,"(-1.0, 0.0, 0.0, 0.0, 8.999999999999999e-08, 0.0, 0.0, 0.0, 8.999999999999999e-08)"
1970/01/01/01:00:10.971000,13,10,971000000,base_link,0.00052455656906,6.9292691095e-05,-0.685309065974,-0.728252231772,"(1.0, 0.0, 0.0, 0.0, 1.0, 0.0, 0.0, 0.0, 1.0)",-0.00902855023742,-0.000124052399769,0.110190778971,"(1.2184696791468346e-07, 0.0, 0.0, 0.0, 1.2184696791468346e-07, 0.0, 0.0, 0.0, 1.2184696791468346e-07)",0.0,0.0,0.0,"(-1.0, 0.0, 0.0, 0.0, 8.999999999999999e-08, 0.0, 0.0, 0.0, 8.999999999999999e-08)"
1970/01/01/01:00:10.991000,14,10,991000000,base_link,0.000515199639418,6.04257185673e-05,-0.686076394132,-0.727529326392,"(1.0, 0.0, 0.0, 0.0, 1.0, 0.0, 0.0, 0.0, 1.0)",0.00088633626001,-0.0013901644852,0.104644596577,"(1.2184696791468346e-07, 0.0, 0.0, 0.0, 1.2184696791468346e-07, 0.0, 0.0, 0.0, 1.2184696791468346e-07)",0.0,0.0,0.0,"(-1.0, 0.0, 0.0, 0.0, 8.999999999999999e-08, 0.0, 0.0, 0.0, 8.999999999999999e-08)"
1970/01/01/01:00:11.011000,15,11,11000000,base_link,0.000620613270401,-3.01305309303e-05,-0.686851794729,-0.726797252756,"(1.0, 0.0, 0.0, 0.0, 1.0, 0.0, 0.0, 0.0, 1.0)",-0.00291579030454,0.012860564515,0.108232453465,"(1.2184696791468346e-07, 0.0, 0.0, 0.0, 1.2184696791468346e-07, 0.0, 0.0, 0.0, 1.2184696791468346e-07)",0.0,0.0,0.0,"(-1.0, 0.0, 0.0, 0.0, 8.999999999999999e-08, 0.0, 0.0, 0.0, 8.999999999999999e-08)"
1970/01/01/01:00:11.031000,16,11,31000000,base_link,0.000674517072854,9.55504864108e-06,-0.687622402438,-0.726068201838,"(1.0, 0.0, 0.0, 0.0, 1.0, 0.0, 0.0, 0.0, 1.0)",-0.00398812768981,0.00105626590084,0.0859498232603,"(1.2184696791468346e-07, 0.0, 0.0, 0.0, 1.2184696791468346e-07, 0.0, 0.0, 0.0, 1.2184696791468346e-07)",0.0,0.0,0.0,"(-1.0, 0.0, 0.0, 0.0, 8.999999999999999e-08, 0.0, 0.0, 0.0, 8.999999999999999e-08)"
1970/01/01/01:00:11.051000,17,11,50000000,base_link,0.000654058976123,4.77169208571e-05,-0.688141746442,-0.725576000405,"(1.0, 0.0, 0.0, 0.0, 1.0, 0.0, 0.0, 0.0, 1.0)",0.000403183948947,-0.00237455544993,0.0904507189989,"(1.2184696791468346e-07, 0.0, 0.0, 0.0, 1.2184696791468346e-07, 0.0, 0.0, 0.0, 1.2184696791468346e-07)",0.0,0.0,0.0,"(-1.0, 0.0, 0.0, 0.0, 8.999999999999999e-08, 0.0, 0.0, 0.0, 8.999999999999999e-08)"
1970/01/01/01:00:11.071000,18,11,71000000,base_link,0.000591916082172,6.76091220604e-05,-0.688737833272,-0.7250103436,"(1.0, 0.0, 0.0, 0.0, 1.0, 0.0, 0.0, 0.0, 1.0)",-0.00254841940477,-0.00567246321589,0.0800359621644,"(1.2184696791468346e-07, 0.0, 0.0, 0.0, 1.2184696791468346e-07, 0.0, 0.0, 0.0, 1.2184696791468346e-07)",0.0,0.0,0.0,"(-1.0, 0.0, 0.0, 0.0, 8.999999999999999e-08, 0.0, 0.0, 0.0, 8.999999999999999e-08)"
1970/01/01/01:00:11.091000,19,11,91000000,base_link,0.000612567420557,0.000112551656644,-0.689303654713,-0.724472339078,"(1.0, 0.0, 0.0, 0.0, 1.0, 0.0, 0.0, 0.0, 1.0)",-0.00234622554854,-0.00123263150454,0.0802111327648,"(1.2184696791468346e-07, 0.0, 0.0, 0.0, 1.2184696791468346e-07, 0.0, 0.0, 0.0, 1.2184696791468346e-07)",0.0,0.0,0.0,"(-1.0, 0.0, 0.0, 0.0, 8.999999999999999e-08, 0.0, 0.0, 0.0, 8.999999999999999e-08)"
1970/01/01/01:00:11.111000,20,11,111000000,base_link,0.000614907928897,0.000121325403965,-0.689785527535,-0.724013478436,"(1.0, 0.0, 0.0, 0.0, 1.0, 0.0, 0.0, 0.0, 1.0)",-0.000492570339702,-0.00286542391405,0.0660924613476,"(1.2184696791468346e-07, 0.0, 0.0, 0.0, 1.2184696791468346e-07, 0.0, 0.0, 0.0, 1.2184696791468346e-07)",0.0,0.0,0.0,"(-1.0, 0.0, 0.0, 0.0, 8.999999999999999e-08, 0.0, 0.0, 0.0, 8.999999999999999e-08)"
1970/01/01/01:00:11.132000,21,11,131000000,base_link,0.000630228226013,0.000110131464418,-0.690198507381,-0.72361988614,"(1.0, 0.0, 0.0, 0.0, 1.0, 0.0, 0.0, 0.0, 1.0)",0.00133993383497,0.000680752331391,0.0563433207572,"(1.2184696791468346e-07, 0.0, 0.0, 0.0, 1.2184696791468346e-07, 0.0, 0.0, 0.0, 1.2184696791468346e-07)",0.0,0.0,0.0,"(-1.0, 0.0, 0.0, 0.0, 8.999999999999999e-08, 0.0, 0.0, 0.0, 8.999999999999999e-08)"
1970/01/01/01:00:11.154000,22,11,154000000,base_link,0.000666301997651,0.000103225205265,-0.690674149055,-0.723165823653,"(1.0, 0.0, 0.0, 0.0, 1.0, 0.0, 0.0, 0.0, 1.0)",-0.00424652080983,-0.00136980344541,0.0657175406814,"(1.2184696791468346e-07, 0.0, 0.0, 0.0, 1.2184696791468346e-07, 0.0, 0.0, 0.0, 1.2184696791468346e-07)",0.0,0.0,0.0,"(-1.0, 0.0, 0.0, 0.0, 8.999999999999999e-08, 0.0, 0.0, 0.0, 8.999999999999999e-08)"
1970/01/01/01:00:11.171000,23,11,171000000,base_link,0.000663911995575,5.06652657783e-05,-0.691114861528,-0.722744667318,"(1.0, 0.0, 0.0, 0.0, 1.0, 0.0, 0.0, 0.0, 1.0)",0.00341539643705,0.00635745003819,0.0600957982242,"(1.2184696791468346e-07, 0.0, 0.0, 0.0, 1.2184696791468346e-07, 0.0, 0.0, 0.0, 1.2184696791468346e-07)",0.0,0.0,0.0,"(-1.0, 0.0, 0.0, 0.0, 8.999999999999999e-08, 0.0, 0.0, 0.0, 8.999999999999999e-08)"
1970/01/01/01:00:11.191000,24,11,191000000,base_link,0.000724456457948,0.000128154860364,-0.691561097872,-0.722317649937,"(1.0, 0.0, 0.0, 0.0, 1.0, 0.0, 0.0, 0.0, 1.0)",-0.00334173371084,-0.00439980439842,0.0571934990585,"(1.2184696791468346e-07, 0.0, 0.0, 0.0, 1.2184696791468346e-07, 0.0, 0.0, 0.0, 1.2184696791468346e-07)",0.0,0.0,0.0,"(-1.0, 0.0, 0.0, 0.0, 8.999999999999999e-08, 0.0, 0.0, 0.0, 8.999999999999999e-08)"
1970/01/01/01:00:11.211000,25,11,211000000,base_link,0.000763368185984,0.000150503412003,-0.691942662511,-0.7219521011,"(1.0, 0.0, 0.0, 0.0, 1.0, 0.0, 0.0, 0.0, 1.0)",-0.00529603194445,0.00803872290999,0.056616358459,"(1.2184696791468346e-07, 0.0, 0.0, 0.0, 1.2184696791468346e-07, 0.0, 0.0, 0.0, 1.2184696791468346e-07)",0.0,0.0,0.0,"(-1.0, 0.0, 0.0, 0.0, 8.999999999999999e-08, 0.0, 0.0, 0.0, 8.999999999999999e-08)"
1970/01/01/01:00:11.231000,26,11,231000000,base_link,0.00080035768434,0.000113649079907,-0.692305650926,-0.721603948375,"(1.0, 0.0, 0.0, 0.0, 1.0, 0.0, 0.0, 0.0, 1.0)",0.00395619496703,0.00496833398938,0.0488885045052,"(1.2184696791468346e-07, 0.0, 0.0, 0.0, 1.2184696791468346e-07, 0.0, 0.0, 0.0, 1.2184696791468346e-07)",0.0,0.0,0.0,"(-1.0, 0.0, 0.0, 0.0, 8.999999999999999e-08, 0.0, 0.0, 0.0, 8.999999999999999e-08)"
1970/01/01/01:00:11.251000,27,11,251000000,base_link,0.000726001670898,8.98732359453e-05,-0.692620759205,-0.721301568445,"(1.0, 0.0, 0.0, 0.0, 1.0, 0.0, 0.0, 0.0, 1.0)",0.00927875563502,-0.00146788184065,0.0445102564991,"(1.2184696791468346e-07, 0.0, 0.0, 0.0, 1.2184696791468346e-07, 0.0, 0.0, 0.0, 1.2184696791468346e-07)",0.0,0.0,0.0,"(-1.0, 0.0, 0.0, 0.0, 8.999999999999999e-08, 0.0, 0.0, 0.0, 8.999999999999999e-08)"
1970/01/01/01:00:11.271000,28,11,271000000,base_link,0.000726249551167,1.33382427828e-05,-0.692914077563,-0.721019798323,"(1.0, 0.0, 0.0, 0.0, 1.0, 0.0, 0.0, 0.0, 1.0)",0.010294849053,0.0099929170683,0.0409692339599,"(1.2184696791468346e-07, 0.0, 0.0, 0.0, 1.2184696791468346e-07, 0.0, 0.0, 0.0, 1.2184696791468346e-07)",0.0,0.0,0.0,"(-1.0, 0.0, 0.0, 0.0, 8.999999999999999e-08, 0.0, 0.0, 0.0, 8.999999999999999e-08)"
1970/01/01/01:00:11.291000,29,11,291000000,base_link,0.000697161619669,-4.65155710382e-05,-0.693096079509,-0.720844877048,"(1.0, 0.0, 0.0, 0.0, 1.0, 0.0, 0.0, 0.0, 1.0)",0.00507532944903,-0.00099637650419,0.0179538503289,"(1.2184696791468346e-07, 0.0, 0.0, 0.0, 1.2184696791468346e-07, 0.0, 0.0, 0.0, 1.2184696791468346e-07)",0.0,0.0,0.0,"(-1.0, 0.0, 0.0, 0.0, 8.999999999999999e-08, 0.0, 0.0, 0.0, 8.999999999999999e-08)"
1970/01/01/01:00:11.311000,30,11,311000000,base_link,0.000631560729086,-1.37967543963e-05,-0.693295693569,-0.720653018008,"(1.0, 0.0, 0.0, 0.0, 1.0, 0.0, 0.0, 0.0, 1.0)",0.00452995765954,-0.00692068459466,0.0259190015495,"(1.2184696791468346e-07, 0.0, 0.0, 0.0, 1.2184696791468346e-07, 0.0, 0.0, 0.0, 1.2184696791468346e-07)",0.0,0.0,0.0,"(-1.0, 0.0, 0.0, 0.0, 8.999999999999999e-08, 0.0, 0.0, 0.0, 8.999999999999999e-08)"
1970/01/01/01:00:11.331000,31,11,331000000,base_link,0.000594003256672,-8.63110452243e-05,-0.693598526578,-0.720361480354,"(1.0, 0.0, 0.0, 0.0, 1.0, 0.0, 0.0, 0.0, 1.0)",0.00525641394779,0.000774197047576,0.0352331846952,"(1.2184696791468346e-07, 0.0, 0.0, 0.0, 1.2184696791468346e-07, 0.0, 0.0, 0.0, 1.2184696791468346e-07)",0.0,0.0,0.0,"(-1.0, 0.0, 0.0, 0.0, 8.999999999999999e-08, 0.0, 0.0, 0.0, 8.999999999999999e-08)"
1970/01/01/01:00:11.351000,32,11,351000000,base_link,0.000606803365694,-4.68117720102e-05,-0.693855580207,-0.720113951913,"(1.0, 0.0, 0.0, 0.0, 1.0, 0.0, 0.0, 0.0, 1.0)",-0.00353741482832,-0.00281545892358,0.0304999761283,"(1.2184696791468346e-07, 0.0, 0.0, 0.0, 1.2184696791468346e-07, 0.0, 0.0, 0.0, 1.2184696791468346e-07)",0.0,0.0,0.0,"(-1.0, 0.0, 0.0, 0.0, 8.999999999999999e-08, 0.0, 0.0, 0.0, 8.999999999999999e-08)"
1970/01/01/01:00:11.371000,33,11,371000000,base_link,0.00058102462035,-9.22761002186e-05,-0.69408880111,-0.71988916038,"(1.0, 0.0, 0.0, 0.0, 1.0, 0.0, 0.0, 0.0, 1.0)",0.0059629958123,0.00207167677581,0.0293020512909,"(1.2184696791468346e-07, 0.0, 0.0, 0.0, 1.2184696791468346e-07, 0.0, 0.0, 0.0, 1.2184696791468346e-07)",0.0,0.0,0.0,"(-1.0, 0.0, 0.0, 0.0, 8.999999999999999e-08, 0.0, 0.0, 0.0, 8.999999999999999e-08)"
1970/01/01/01:00:11.391000,34,11,391000000,base_link,0.000604022867304,-6.96447037139e-05,-0.694222131349,-0.719760719176,"(1.0, 0.0, 0.0, 0.0, 1.0, 0.0, 0.0, 0.0, 1.0)",-0.00169080297928,0.00222458713688,0.0173829644918,"(1.2184696791468346e-07, 0.0, 0.0, 0.0, 1.2184696791468346e-07, 0.0, 0.0, 0.0, 1.2184696791468346e-07)",0.0,0.0,0.0,"(-1.0, 0.0, 0.0, 0.0, 8.999999999999999e-08, 0.0, 0.0, 0.0, 8.999999999999999e-08)"
1970/01/01/01:00:11.411000,35,11,411000000,base_link,0.000576495048326,-4.88422293644e-05,-0.694415732897,-0.719573945417,"(1.0, 0.0, 0.0, 0.0, 1.0, 0.0, 0.0, 0.0, 1.0)",0.00626775249839,-0.00363629683852,0.0269266106188,"(1.2184696791468346e-07, 0.0, 0.0, 0.0, 1.2184696791468346e-07, 0.0, 0.0, 0.0, 1.2184696791468346e-07)",0.0,0.0,0.0,"(-1.0, 0.0, 0.0, 0.0, 8.999999999999999e-08, 0.0, 0.0, 0.0, 8.999999999999999e-08)"
1970/01/01/01:00:11.431000,36,11,431000000,base_link,0.000547122872556,-0.000105087589713,-0.694584776004,-0.719410718575,"(1.0, 0.0, 0.0, 0.0, 1.0, 0.0, 0.0, 0.0, 1.0)",0.00565787497908,0.00254563824274,0.0171314012259,"(1.2184696791468346e-07, 0.0, 0.0, 0.0, 1.2184696791468346e-07, 0.0, 0.0, 0.0, 1.2184696791468346e-07)",0.0,0.0,0.0,"(-1.0, 0.0, 0.0, 0.0, 8.999999999999999e-08, 0.0, 0.0, 0.0, 8.999999999999999e-08)"
1970/01/01/01:00:11.451000,37,11,451000000,base_link,0.000536118758464,-0.000208941293393,-0.694870031143,-0.719135157211,"(1.0, 0.0, 0.0, 0.0, 1.0, 0.0, 0.0, 0.0, 1.0)",0.00607755640522,0.00270920596085,0.0345151796937,"(1.2184696791468346e-07, 0.0, 0.0, 0.0, 1.2184696791468346e-07, 0.0, 0.0, 0.0, 1.2184696791468346e-07)",0.0,0.0,0.0,"(-1.0, 0.0, 0.0, 0.0, 8.999999999999999e-08, 0.0, 0.0, 0.0, 8.999999999999999e-08)"
1970/01/01/01:00:11.471000,38,11,471000000,base_link,0.000486573018349,-0.000243230944481,-0.695009298819,-0.719000609983,"(1.0, 0.0, 0.0, 0.0, 1.0, 0.0, 0.0, 0.0, 1.0)",0.00777902733535,0.0014485148713,0.0129428189248,"(1.2184696791468346e-07, 0.0, 0.0, 0.0, 1.2184696791468346e-07, 0.0, 0.0, 0.0, 1.2184696791468346e-07)",0.0,0.0,0.0,"(-1.0, 0.0, 0.0, 0.0, 8.999999999999999e-08, 0.0, 0.0, 0.0, 8.999999999999999e-08)"
1970/01/01/01:00:11.491000,39,11,490000000,base_link,0.000521804048522,-0.000208063299217,-0.695180420292,-0.718835220481,"(1.0, 0.0, 0.0, 0.0, 1.0, 0.0, 0.0, 0.0, 1.0)",-0.00285221915692,-0.00365404039621,0.0238039903343,"(1.2184696791468346e-07, 0.0, 0.0, 0.0, 1.2184696791468346e-07, 0.0, 0.0, 0.0, 1.2184696791468346e-07)",0.0,0.0,0.0,"(-1.0, 0.0, 0.0, 0.0, 8.999999999999999e-08, 0.0, 0.0, 0.0, 8.999999999999999e-08)"
1970/01/01/01:00:11.511000,40,11,511000000,base_link,0.000451349983318,-0.000245539348777,-0.695406206228,-0.718616768096,"(1.0, 0.0, 0.0, 0.0, 1.0, 0.0, 0.0, 0.0, 1.0)",0.000636489246972,-0.00397809408605,0.0259722322226,"(1.2184696791468346e-07, 0.0, 0.0, 0.0, 1.2184696791468346e-07, 0.0, 0.0, 0.0, 1.2184696791468346e-07)",0.0,0.0,0.0,"(-1.0, 0.0, 0.0, 0.0, 8.999999999999999e-08, 0.0, 0.0, 0.0, 8.999999999999999e-08)"
1970/01/01/01:00:11.531000,41,11,531000000,base_link,0.000391618550733,-0.000295684678232,-0.695548030373,-0.718479495811,"(1.0, 0.0, 0.0, 0.0, 1.0, 0.0, 0.0, 0.0, 1.0)",0.00877558998764,-0.0031160924118,0.0191341117024,"(1.2184696791468346e-07, 0.0, 0.0, 0.0, 1.2184696791468346e-07, 0.0, 0.0, 0.0, 1.2184696791468346e-07)",0.0,0.0,0.0,"(-1.0, 0.0, 0.0, 0.0, 8.999999999999999e-08, 0.0, 0.0, 0.0, 8.999999999999999e-08)"
1970/01/01/01:00:11.551000,42,11,551000000,base_link,0.000395402619504,-0.000319735804088,-0.695758831787,-0.718275353599,"(1.0, 0.0, 0.0, 0.0, 1.0, 0.0, 0.0, 0.0, 1.0)",0.00012252794113,0.00462850555778,0.021412845701,"(1.2184696791468346e-07, 0.0, 0.0, 0.0, 1.2184696791468346e-07, 0.0, 0.0, 0.0, 1.2184696791468346e-07)",0.0,0.0,0.0,"(-1.0, 0.0, 0.0, 0.0, 8.999999999999999e-08, 0.0, 0.0, 0.0, 8.999999999999999e-08)"
1970/01/01/01:00:11.571000,43,11,571000000,base_link,0.00033093470587,-0.000401212193683,-0.695963853815,-0.718076737892,"(1.0, 0.0, 0.0, 0.0, 1.0, 0.0, 0.0, 0.0, 1.0)",0.01184773352,-0.000691734720021,0.0293793231249,"(1.2184696791468346e-07, 0.0, 0.0, 0.0, 1.2184696791468346e-07, 0.0, 0.0, 0.0, 1.2184696791468346e-07)",0.0,0.0,0.0,"(-1.0, 0.0, 0.0, 0.0, 8.999999999999999e-08, 0.0, 0.0, 0.0, 8.999999999999999e-08)"
1970/01/01/01:00:11.591000,44,11,591000000,base_link,0.000287558851244,-0.000459146738702,-0.696105843254,-0.717938963137,"(1.0, 0.0, 0.0, 0.0, 1.0, 0.0, 0.0, 0.0, 1.0)",0.00664966227487,0.00201008585282,0.0115245031193,"(1.2184696791468346e-07, 0.0, 0.0, 0.0, 1.2184696791468346e-07, 0.0, 0.0, 0.0, 1.2184696791468346e-07)",0.0,0.0,0.0,"(-1.0, 0.0, 0.0, 0.0, 8.999999999999999e-08, 0.0, 0.0, 0.0, 8.999999999999999e-08)"
1970/01/01/01:00:11.610000,45,11,611000000,base_link,0.00024970720494,-0.00045805049876,-0.696267465882,-0.717782313838,"(1.0, 0.0, 0.0, 0.0, 1.0, 0.0, 0.0, 0.0, 1.0)",-0.000386608153349,-0.0064973863773,0.0199504960328,"(1.2184696791468346e-07, 0.0, 0.0, 0.0, 1.2184696791468346e-07, 0.0, 0.0, 0.0, 1.2184696791468346e-07)",0.0,0.0,0.0,"(-1.0, 0.0, 0.0, 0.0, 8.999999999999999e-08, 0.0, 0.0, 0.0, 8.999999999999999e-08)"
1970/01/01/01:00:11.631000,46,11,631000000,base_link,0.000269726433205,-0.000418135200343,-0.696406713142,-0.717647281262,"(1.0, 0.0, 0.0, 0.0, 1.0, 0.0, 0.0, 0.0, 1.0)",-0.00461095850915,-0.000548766227439,0.00992310978472,"(1.2184696791468346e-07, 0.0, 0.0, 0.0, 1.2184696791468346e-07, 0.0, 0.0, 0.0, 1.2184696791468346e-07)",0.0,0.0,0.0,"(-1.0, 0.0, 0.0, 0.0, 8.999999999999999e-08, 0.0, 0.0, 0.0, 8.999999999999999e-08)"
1970/01/01/01:00:11.651000,47,11,651000000,base_link,0.000257294882733,-0.000407104250562,-0.696527642987,-0.717529807459,"(1.0, 0.0, 0.0, 0.0, 1.0, 0.0, 0.0, 0.0, 1.0)",0.00250658858567,-0.00124706712086,0.0127088855952,"(1.2184696791468346e-07, 0.0, 0.0, 0.0, 1.2184696791468346e-07, 0.0, 0.0, 0.0, 1.2184696791468346e-07)",0.0,0.0,0.0,"(-1.0, 0.0, 0.0, 0.0, 8.999999999999999e-08, 0.0, 0.0, 0.0, 8.999999999999999e-08)"
1970/01/01/01:00:11.671000,48,11,671000000,base_link,0.000183119259037,-0.000351003512761,-0.696592113836,-0.717467275365,"(1.0, 0.0, 0.0, 0.0, 1.0, 0.0, 0.0, 0.0, 1.0)",0.00345110567287,-0.00778439547867,0.00226607057266,"(1.2184696791468346e-07, 0.0, 0.0, 0.0, 1.2184696791468346e-07, 0.0, 0.0, 0.0, 1.2184696791468346e-07)",0.0,0.0,0.0,"(-1.0, 0.0, 0.0, 0.0, 8.999999999999999e-08, 0.0, 0.0, 0.0, 8.999999999999999e-08)"
1970/01/01/01:00:11.691000,49,11,691000000,base_link,0.000196000194108,-0.000415917839826,-0.696722756554,-0.717340510157,"(1.0, 0.0, 0.0, 0.0, 1.0, 0.0, 0.0, 0.0, 1.0)",0.00824785977602,0.00666514923796,0.0139933377504,"(1.2184696791468346e-07, 0.0, 0.0, 0.0, 1.2184696791468346e-07, 0.0, 0.0, 0.0, 1.2184696791468346e-07)",0.0,0.0,0.0,"(-1.0, 0.0, 0.0, 0.0, 8.999999999999999e-08, 0.0, 0.0, 0.0, 8.999999999999999e-08)"
1970/01/01/01:00:11.711000,50,11,711000000,base_link,0.000205154960875,-0.000511518365329,-0.696730661064,-0.717332689941,"(1.0, 0.0, 0.0, 0.0, 1.0, 0.0, 0.0, 0.0, 1.0)",0.00261230301112,0.00351420231164,0.0029247389175,"(1.2184696791468346e-07, 0.0, 0.0, 0.0, 1.2184696791468346e-07, 0.0, 0.0, 0.0, 1.2184696791468346e-07)",0.0,0.0,0.0,"(-1.0, 0.0, 0.0, 0.0, 8.999999999999999e-08, 0.0, 0.0, 0.0, 8.999999999999999e-08)"
1970/01/01/01:00:11.731000,51,11,731000000,base_link,0.000118725038077,-0.000505901011545,-0.696817233325,-0.717248562197,"(1.0, 0.0, 0.0, 0.0, 1.0, 0.0, 0.0, 0.0, 1.0)",0.00760072190315,-0.00694528687745,0.00872026756406,"(1.2184696791468346e-07, 0.0, 0.0, 0.0, 1.2184696791468346e-07, 0.0, 0.0, 0.0, 1.2184696791468346e-07)",0.0,0.0,0.0,"(-1.0, 0.0, 0.0, 0.0, 8.999999999999999e-08, 0.0, 0.0, 0.0, 8.999999999999999e-08)"
1970/01/01/01:00:11.751000,52,11,751000000,base_link,0.00011113712362,-0.000470339525796,-0.696874860579,-0.717192705111,"(1.0, 0.0, 0.0, 0.0, 1.0, 0.0, 0.0, 0.0, 1.0)",0.00289904838428,-0.0054857111536,0.00916530843824,"(1.2184696791468346e-07, 0.0, 0.0, 0.0, 1.2184696791468346e-07, 0.0, 0.0, 0.0, 1.2184696791468346e-07)",0.0,0.0,0.0,"(-1.0, 0.0, 0.0, 0.0, 8.999999999999999e-08, 0.0, 0.0, 0.0, 8.999999999999999e-08)"
1970/01/01/01:00:11.771000,53,11,771000000,base_link,7.58817581696e-05,-0.000479882844113,-0.696939656749,-0.717129679108,"(1.0, 0.0, 0.0, 0.0, 1.0, 0.0, 0.0, 0.0, 1.0)",0.00199980754405,-0.000357291515684,0.0093376878649,"(1.2184696791468346e-07, 0.0, 0.0, 0.0, 1.2184696791468346e-07, 0.0, 0.0, 0.0, 1.2184696791468346e-07)",0.0,0.0,0.0,"(-1.0, 0.0, 0.0, 0.0, 8.999999999999999e-08, 0.0, 0.0, 0.0, 8.999999999999999e-08)"
1970/01/01/01:00:11.791000,54,11,791000000,base_link,6.14017021076e-05,-0.000487661221989,-0.697011461808,-0.717059812805,"(1.0, 0.0, 0.0, 0.0, 1.0, 0.0, 0.0, 0.0, 1.0)",-0.000927354209125,0.00114534562454,0.00783434975892,"(1.2184696791468346e-07, 0.0, 0.0, 0.0, 1.2184696791468346e-07, 0.0, 0.0, 0.0, 1.2184696791468346e-07)",0.0,0.0,0.0,"(-1.0, 0.0, 0.0, 0.0, 8.999999999999999e-08, 0.0, 0.0, 0.0, 8.999999999999999e-08)"
1970/01/01/01:00:11.811000,55,11,811000000,base_link,5.34474928475e-05,-0.000478510972425,-0.697071216161,-0.717001744325,"(1.0, 0.0, 0.0, 0.0, 1.0, 0.0, 0.0, 0.0, 1.0)",0.00466538313776,0.000205302028917,0.00486811902374,"(1.2184696791468346e-07, 0.0, 0.0, 0.0, 1.2184696791468346e-07, 0.0, 0.0, 0.0, 1.2184696791468346e-07)",0.0,0.0,0.0,"(-1.0, 0.0, 0.0, 0.0, 8.999999999999999e-08, 0.0, 0.0, 0.0, 8.999999999999999e-08)"
1970/01/01/01:00:11.831000,56,11,831000000,base_link,-6.17375186467e-06,-0.00049619264551,-0.697160295501,-0.716915109503,"(1.0, 0.0, 0.0, 0.0, 1.0, 0.0, 0.0, 0.0, 1.0)",0.00422534253448,-0.00507986685261,0.0133399646729,"(1.2184696791468346e-07, 0.0, 0.0, 0.0, 1.2184696791468346e-07, 0.0, 0.0, 0.0, 1.2184696791468346e-07)",0.0,0.0,0.0,"(-1.0, 0.0, 0.0, 0.0, 8.999999999999999e-08, 0.0, 0.0, 0.0, 8.999999999999999e-08)"
1970/01/01/01:00:11.851000,57,11,851000000,base_link,-3.95878062913e-05,-0.000526950954573,-0.697190921772,-0.716885326169,"(1.0, 0.0, 0.0, 0.0, 1.0, 0.0, 0.0, 0.0, 1.0)",0.00376630853862,0.00159748771694,0.00511048361659,"(1.2184696791468346e-07, 0.0, 0.0, 0.0, 1.2184696791468346e-07, 0.0, 0.0, 0.0, 1.2184696791468346e-07)",0.0,0.0,0.0,"(-1.0, 0.0, 0.0, 0.0, 8.999999999999999e-08, 0.0, 0.0, 0.0, 8.999999999999999e-08)"
1970/01/01/01:00:11.871000,58,11,871000000,base_link,5.65078520744e-06,-0.000595175383578,-0.697198844062,-0.716877656759,"(1.0, 0.0, 0.0, 0.0, 1.0, 0.0, 0.0, 0.0, 1.0)",-0.00150868750643,0.00332747586071,0.000882013177034,"(1.2184696791468346e-07, 0.0, 0.0, 0.0, 1.2184696791468346e-07, 0.0, 0.0, 0.0, 1.2184696791468346e-07)",0.0,0.0,0.0,"(-1.0, 0.0, 0.0, 0.0, 8.999999999999999e-08, 0.0, 0.0, 0.0, 8.999999999999999e-08)"
1970/01/01/01:00:11.891000,59,11,891000000,base_link,-1.40898478614e-05,-0.000531954802119,-0.697223135135,-0.716854040036,"(1.0, 0.0, 0.0, 0.0, 1.0, 0.0, 0.0, 0.0, 1.0)",0.000900129962247,-0.00958145037293,0.00617180066183,"(1.2184696791468346e-07, 0.0, 0.0, 0.0, 1.2184696791468346e-07, 0.0, 0.0, 0.0, 1.2184696791468346e-07)",0.0,0.0,0.0,"(-1.0, 0.0, 0.0, 0.0, 8.999999999999999e-08, 0.0, 0.0, 0.0, 8.999999999999999e-08)"
1970/01/01/01:00:11.911000,60,11,911000000,base_link,2.34250455345e-05,-0.000462346729943,-0.697275210859,-0.716803397305,"(1.0, 0.0, 0.0, 0.0, 1.0, 0.0, 0.0, 0.0, 1.0)",-0.00881052389741,-0.00414776615798,0.0126899760216,"(1.2184696791468346e-07, 0.0, 0.0, 0.0, 1.2184696791468346e-07, 0.0, 0.0, 0.0, 1.2184696791468346e-07)",0.0,0.0,0.0,"(-1.0, 0.0, 0.0, 0.0, 8.999999999999999e-08, 0.0, 0.0, 0.0, 8.999999999999999e-08)"
1970/01/01/01:00:11.931000,61,11,931000000,base_link,-5.8479987079e-06,-0.000409815046132,-0.697278697194,-0.716800079558,"(1.0, 0.0, 0.0, 0.0, 1.0, 0.0, 0.0, 0.0, 1.0)",-0.00302642164752,-0.00767550151795,0.00346780847758,"(1.2184696791468346e-07, 0.0, 0.0, 0.0, 1.2184696791468346e-07, 0.0, 0.0, 0.0, 1.2184696791468346e-07)",0.0,0.0,0.0,"(-1.0, 0.0, 0.0, 0.0, 8.999999999999999e-08, 0.0, 0.0, 0.0, 8.999999999999999e-08)"
1970/01/01/01:00:11.951000,62,11,951000000,base_link,2.98755918878e-05,-0.000389146606169,-0.697280819683,-0.716798041363,"(1.0, 0.0, 0.0, 0.0, 1.0, 0.0, 0.0, 0.0, 1.0)",-0.00375008140691,0.00266141677275,0.00412573292851,"(1.2184696791468346e-07, 0.0, 0.0, 0.0, 1.2184696791468346e-07, 0.0, 0.0, 0.0, 1.2184696791468346e-07)",0.0,0.0,0.0,"(-1.0, 0.0, 0.0, 0.0, 8.999999999999999e-08, 0.0, 0.0, 0.0, 8.999999999999999e-08)"
1970/01/01/01:00:11.971000,63,11,971000000,base_link,1.32491540586e-05,-0.000367816761146,-0.697299438053,-0.716779844461,"(1.0, 0.0, 0.0, 0.0, 1.0, 0.0, 0.0, 0.0, 1.0)",0.00300563708879,-0.00659069232643,0.00633469130844,"(1.2184696791468346e-07, 0.0, 0.0, 0.0, 1.2184696791468346e-07, 0.0, 0.0, 0.0, 1.2184696791468346e-07)",0.0,0.0,0.0,"(-1.0, 0.0, 0.0, 0.0, 8.999999999999999e-08, 0.0, 0.0, 0.0, 8.999999999999999e-08)"
1970/01/01/01:00:11.991000,64,11,991000000,base_link,1.40550890593e-05,-0.00036845760727,-0.697258805857,-0.716819380839,"(1.0, 0.0, 0.0, 0.0, 1.0, 0.0, 0.0, 0.0, 1.0)",-0.00292633031495,0.00436451751739,-0.00277057057247,"(1.2184696791468346e-07, 0.0, 0.0, 0.0, 1.2184696791468346e-07, 0.0, 0.0, 0.0, 1.2184696791468346e-07)",0.0,0.0,0.0,"(-1.0, 0.0, 0.0, 0.0, 8.999999999999999e-08, 0.0, 0.0, 0.0, 8.999999999999999e-08)"
1970/01/01/01:00:12.011000,65,12,11000000,base_link,6.03916183103e-06,-0.00044014589807,-0.697278105162,-0.716800503002,"(1.0, 0.0, 0.0, 0.0, 1.0, 0.0, 0.0, 0.0, 1.0)",0.00525643769652,0.000349899812136,0.00669965334237,"(1.2184696791468346e-07, 0.0, 0.0, 0.0, 1.2184696791468346e-07, 0.0, 0.0, 0.0, 1.2184696791468346e-07)",0.0,0.0,0.0,"(-1.0, 0.0, 0.0, 0.0, 8.999999999999999e-08, 0.0, 0.0, 0.0, 8.999999999999999e-08)"
1970/01/01/01:00:12.031000,66,12,31000000,base_link,2.45185792695e-05,-0.000433355275216,-0.697297062683,-0.716782135537,"(1.0, 0.0, 0.0, 0.0, 1.0, 0.0, 0.0, 0.0, 1.0)",0.000831849058159,-0.00227678194642,0.00583658646792,"(1.2184696791468346e-07, 0.0, 0.0, 0.0, 1.2184696791468346e-07, 0.0, 0.0, 0.0, 1.2184696791468346e-07)",0.0,0.0,0.0,"(-1.0, 0.0, 0.0, 0.0, 8.999999999999999e-08, 0.0, 0.0, 0.0, 8.999999999999999e-08)"
1970/01/01/01:00:12.052000,67,12,51000000,base_link,2.30223044174e-07,-0.000463916679471,-0.697308808483,-0.716770726912,"(1.0, 0.0, 0.0, 0.0, 1.0, 0.0, 0.0, 0.0, 1.0)",0.00481384899467,-0.00133997411467,0.0040941843763,"(1.2184696791468346e-07, 0.0, 0.0, 0.0, 1.2184696791468346e-07, 0.0, 0.0, 0.0, 1.2184696791468346e-07)",0.0,0.0,0.0,"(-1.0, 0.0, 0.0, 0.0, 8.999999999999999e-08, 0.0, 0.0, 0.0, 8.999999999999999e-08)"
1970/01/01/01:00:12.071000,68,12,71000000,base_link,-6.50209803967e-07,-0.000447529910683,-0.697309066632,-0.716770384469,"(1.0, 0.0, 0.0, 0.0, 1.0, 0.0, 0.0, 0.0, 1.0)",-0.00402784626931,-0.00271970592439,0.00233953120187,"(1.2184696791468346e-07, 0.0, 0.0, 0.0, 1.2184696791468346e-07, 0.0, 0.0, 0.0, 1.2184696791468346e-07)",0.0,0.0,0.0,"(-1.0, 0.0, 0.0, 0.0, 8.999999999999999e-08, 0.0, 0.0, 0.0, 8.999999999999999e-08)"
1970/01/01/01:00:12.091000,69,12,91000000,base_link,1.3780537738e-05,-0.000456575657466,-0.697261512475,-0.716816758515,"(1.0, 0.0, 0.0, 0.0, 1.0, 0.0, 0.0, 0.0, 1.0)",-0.00464366795495,0.00570371979848,-0.00320176733658,"(1.2184696791468346e-07, 0.0, 0.0, 0.0, 1.2184696791468346e-07, 0.0, 0.0, 0.0, 1.2184696791468346e-07)",0.0,0.0,0.0,"(-1.0, 0.0, 0.0, 0.0, 8.999999999999999e-08, 0.0, 0.0, 0.0, 8.999999999999999e-08)"
1970/01/01/01:00:12.111000,70,12,111000000,base_link,8.4024146523e-05,-0.000448181067145,-0.697263407766,-0.716814947517,"(1.0, 0.0, 0.0, 0.0, 1.0, 0.0, 0.0, 0.0, 1.0)",-0.0076961829327,-0.00300554418936,0.00233544735238,"(1.2184696791468346e-07, 0.0, 0.0, 0.0, 1.2184696791468346e-07, 0.0, 0.0, 0.0, 1.2184696791468346e-07)",0.0,0.0,0.0,"(-1.0, 0.0, 0.0, 0.0, 8.999999999999999e-08, 0.0, 0.0, 0.0, 8.999999999999999e-08)"
1970/01/01/01:00:12.131000,71,12,131000000,base_link,8.1405526605e-05,-0.000402650205362,-0.697242211852,-0.716835553375,"(1.0, 0.0, 0.0, 0.0, 1.0, 0.0, 0.0, 0.0, 1.0)",-0.000902663741726,-0.0036651128903,-0.000182565301657,"(1.2184696791468346e-07, 0.0, 0.0, 0.0, 1.2184696791468346e-07, 0.0, 0.0, 0.0, 1.2184696791468346e-07)",0.0,0.0,0.0,"(-1.0, 0.0, 0.0, 0.0, 8.999999999999999e-08, 0.0, 0.0, 0.0, 8.999999999999999e-08)"
1970/01/01/01:00:12.151000,72,12,151000000,base_link,2.39507904266e-05,-0.000399560787859,-0.697195797635,-0.716880618893,"(1.0, 0.0, 0.0, 0.0, 1.0, 0.0, 0.0, 0.0, 1.0)",0.0006973076961,-0.00489537790418,-0.00201798556373,"(1.2184696791468346e-07, 0.0, 0.0, 0.0, 1.2184696791468346e-07, 0.0, 0.0, 0.0, 1.2184696791468346e-07)",0.0,0.0,0.0,"(-1.0, 0.0, 0.0, 0.0, 8.999999999999999e-08, 0.0, 0.0, 0.0, 8.999999999999999e-08)"
1970/01/01/01:00:12.172000,73,12,172000000,base_link,-5.85943783187e-05,-0.000389770216949,-0.697144344894,-0.716930807228,"(1.0, 0.0, 0.0, 0.0, 1.0, 0.0, 0.0, 0.0, 1.0)",0.00356164062396,-0.00818860717118,-0.00346539216116,"(1.2184696791468346e-07, 0.0, 0.0, 0.0, 1.2184696791468346e-07, 0.0, 0.0, 0.0, 1.2184696791468346e-07)",0.0,0.0,0.0,"(-1.0, 0.0, 0.0, 0.0, 8.999999999999999e-08, 0.0, 0.0, 0.0, 8.999999999999999e-08)"
1970/01/01/01:00:12.191000,74,12,191000000,base_link,-9.65919333902e-05,-0.000448907235942,-0.69711524974,-0.716959059446,"(1.0, 0.0, 0.0, 0.0, 1.0, 0.0, 0.0, 0.0, 1.0)",0.00656574126333,0.00234079244547,-0.00160789547954,"(1.2184696791468346e-07, 0.0, 0.0, 0.0, 1.2184696791468346e-07, 0.0, 0.0, 0.0, 1.2184696791468346e-07)",0.0,0.0,0.0,"(-1.0, 0.0, 0.0, 0.0, 8.999999999999999e-08, 0.0, 0.0, 0.0, 8.999999999999999e-08)"
1970/01/01/01:00:12.212000,75,12,211000000,base_link,-9.23425823446e-05,-0.000411494097963,-0.697127653425,-0.716946992935,"(1.0, 0.0, 0.0, 0.0, 1.0, 0.0, 0.0, 0.0, 1.0)",-0.00384746096097,-0.00255951588042,0.00371506623924,"(1.2184696791468346e-07, 0.0, 0.0, 0.0, 1.2184696791468346e-07, 0.0, 0.0, 0.0, 1.2184696791468346e-07)",0.0,0.0,0.0,"(-1.0, 0.0, 0.0, 0.0, 8.999999999999999e-08, 0.0, 0.0, 0.0, 8.999999999999999e-08)"
1970/01/01/01:00:12.231000,76,12,230000000,base_link,-4.59084238711e-05,-0.000368622377164,-0.697109588232,-0.716964552366,"(1.0, 0.0, 0.0, 0.0, 1.0, 0.0, 0.0, 0.0, 1.0)",-0.000994691043161,0.00176498142537,0.00300994957797,"(1.2184696791468346e-07, 0.0, 0.0, 0.0, 1.2184696791468346e-07, 0.0, 0.0, 0.0, 1.2184696791468346e-07)",0.0,0.0,0.0,"(-1.0, 0.0, 0.0, 0.0, 8.999999999999999e-08, 0.0, 0.0, 0.0, 8.999999999999999e-08)"
1970/01/01/01:00:12.251000,77,12,251000000,base_link,-9.87374302374e-06,-0.000365795482256,-0.697084999498,-0.716988466751,"(1.0, 0.0, 0.0, 0.0, 1.0, 0.0, 0.0, 0.0, 1.0)",-0.00181263731793,0.00099636381492,-0.00269165029749,"(1.2184696791468346e-07, 0.0, 0.0, 0.0, 1.2184696791468346e-07, 0.0, 0.0, 0.0, 1.2184696791468346e-07)",0.0,0.0,0.0,"(-1.0, 0.0, 0.0, 0.0, 8.999999999999999e-08, 0.0, 0.0, 0.0, 8.999999999999999e-08)"
1970/01/01/01:00:12.271000,78,12,270000000,base_link,1.88440144316e-05,-0.000315773130843,-0.697067151624,-0.717005808862,"(1.0, 0.0, 0.0, 0.0, 1.0, 0.0, 0.0, 0.0, 1.0)",-0.00139240862336,-0.00187392195221,0.000640337588266,"(1.2184696791468346e-07, 0.0, 0.0, 0.0, 1.2184696791468346e-07, 0.0, 0.0, 0.0, 1.2184696791468346e-07)",0.0,0.0,0.0,"(-1.0, 0.0, 0.0, 0.0, 8.999999999999999e-08, 0.0, 0.0, 0.0, 8.999999999999999e-08)"
1970/01/01/01:00:12.291000,79,12,291000000,base_link,1.32791384132e-05,-0.00038357624571,-0.697085550041,-0.716987916208,"(1.0, 0.0, 0.0, 0.0, 1.0, 0.0, 0.0, 0.0, 1.0)",0.00824125949293,0.000662989157718,0.00334944669157,"(1.2184696791468346e-07, 0.0, 0.0, 0.0, 1.2184696791468346e-07, 0.0, 0.0, 0.0, 1.2184696791468346e-07)",0.0,0.0,0.0,"(-1.0, 0.0, 0.0, 0.0, 8.999999999999999e-08, 0.0, 0.0, 0.0, 8.999999999999999e-08)"
1970/01/01/01:00:12.311000,80,12,311000000,base_link,4.39015918013e-05,-0.000348148722319,-0.697080904009,-0.716992393652,"(1.0, 0.0, 0.0, 0.0, 1.0, 0.0, 0.0, 0.0, 1.0)",-0.0127678420395,0.00134869571775,-0.00131802924443,"(1.2184696791468346e-07, 0.0, 0.0, 0.0, 1.2184696791468346e-07, 0.0, 0.0, 0.0, 1.2184696791468346e-07)",0.0,0.0,0.0,"(-1.0, 0.0, 0.0, 0.0, 8.999999999999999e-08, 0.0, 0.0, 0.0, 8.999999999999999e-08)"
1970/01/01/01:00:12.331000,81,12,331000000,base_link,6.91256060056e-05,-0.000326589961051,-0.697096738053,-0.71697706537,"(1.0, 0.0, 0.0, 0.0, 1.0, 0.0, 0.0, 0.0, 1.0)",-0.00158159958664,-0.00339437439106,0.00251210923307,"(1.2184696791468346e-07, 0.0, 0.0, 0.0, 1.2184696791468346e-07, 0.0, 0.0, 0.0, 1.2184696791468346e-07)",0.0,0.0,0.0,"(-1.0, 0.0, 0.0, 0.0, 8.999999999999999e-08, 0.0, 0.0, 0.0, 8.999999999999999e-08)"
1970/01/01/01:00:12.351000,82,12,351000000,base_link,5.11814411955e-05,-0.000361478146779,-0.697093960971,-0.716979758158,"(1.0, 0.0, 0.0, 0.0, 1.0, 0.0, 0.0, 0.0, 1.0)",0.00366075825877,-0.00012032687664,8.98028083611e-05,"(1.2184696791468346e-07, 0.0, 0.0, 0.0, 1.2184696791468346e-07, 0.0, 0.0, 0.0, 1.2184696791468346e-07)",0.0,0.0,0.0,"(-1.0, 0.0, 0.0, 0.0, 8.999999999999999e-08, 0.0, 0.0, 0.0, 8.999999999999999e-08)"
1970/01/01/01:00:12.371000,83,12,371000000,base_link,0.000143724817877,-0.000390219817632,-0.697038475962,-0.717033641587,"(1.0, 0.0, 0.0, 0.0, 1.0, 0.0, 0.0, 0.0, 1.0)",-0.00884435977787,0.00341223692521,-0.00368586275727,"(1.2184696791468346e-07, 0.0, 0.0, 0.0, 1.2184696791468346e-07, 0.0, 0.0, 0.0, 1.2184696791468346e-07)",0.0,0.0,0.0,"(-1.0, 0.0, 0.0, 0.0, 8.999999999999999e-08, 0.0, 0.0, 0.0, 8.999999999999999e-08)"
1970/01/01/01:00:12.391000,84,12,391000000,base_link,0.000142981279968,-0.000354567823172,-0.697075959657,-0.71699725371,"(1.0, 0.0, 0.0, 0.0, 1.0, 0.0, 0.0, 0.0, 1.0)",-0.00239677261561,-0.00582163594663,0.00703796138987,"(1.2184696791468346e-07, 0.0, 0.0, 0.0, 1.2184696791468346e-07, 0.0, 0.0, 0.0, 1.2184696791468346e-07)",0.0,0.0,0.0,"(-1.0, 0.0, 0.0, 0.0, 8.999999999999999e-08, 0.0, 0.0, 0.0, 8.999999999999999e-08)"
1970/01/01/01:00:12.411000,85,12,411000000,base_link,0.000106552635159,-0.000329522079024,-0.697082788764,-0.716990677485,"(1.0, 0.0, 0.0, 0.0, 1.0, 0.0, 0.0, 0.0, 1.0)",-0.00026960883406,-0.00128882669378,0.00283965677954,"(1.2184696791468346e-07, 0.0, 0.0, 0.0, 1.2184696791468346e-07, 0.0, 0.0, 0.0, 1.2184696791468346e-07)",0.0,0.0,0.0,"(-1.0, 0.0, 0.0, 0.0, 8.999999999999999e-08, 0.0, 0.0, 0.0, 8.999999999999999e-08)"
1970/01/01/01:00:12.431000,86,12,431000000,base_link,6.14891444706e-05,-0.000271871353826,-0.6970880479,-0.716985586936,"(1.0, 0.0, 0.0, 0.0, 1.0, 0.0, 0.0, 0.0, 1.0)",0.00102444633376,-0.00671181594953,0.000451674073702,"(1.2184696791468346e-07, 0.0, 0.0, 0.0, 1.2184696791468346e-07, 0.0, 0.0, 0.0, 1.2184696791468346e-07)",0.0,0.0,0.0,"(-1.0, 0.0, 0.0, 0.0, 8.999999999999999e-08, 0.0, 0.0, 0.0, 8.999999999999999e-08)"
1970/01/01/01:00:12.450000,87,12,450000000,base_link,0.000136285286874,-0.000296272099933,-0.697113748917,-0.716960475975,"(1.0, 0.0, 0.0, 0.0, 1.0, 0.0, 0.0, 0.0, 1.0)",-0.00364678539336,0.0134910242632,0.00164567446336,"(1.2184696791468346e-07, 0.0, 0.0, 0.0, 1.2184696791468346e-07, 0.0, 0.0, 0.0, 1.2184696791468346e-07)",0.0,0.0,0.0,"(-1.0, 0.0, 0.0, 0.0, 8.999999999999999e-08, 0.0, 0.0, 0.0, 8.999999999999999e-08)"
1970/01/01/01:00:12.471000,88,12,471000000,base_link,7.63677640165e-05,-0.000331035486332,-0.697131085101,-0.716943645553,"(1.0, 0.0, 0.0, 0.0, 1.0, 0.0, 0.0, 0.0, 1.0)",0.0079024285078,-0.00250957068056,0.00645169056952,"(1.2184696791468346e-07, 0.0, 0.0, 0.0, 1.2184696791468346e-07, 0.0, 0.0, 0.0, 1.2184696791468346e-07)",0.0,0.0,0.0,"(-1.0, 0.0, 0.0, 0.0, 8.999999999999999e-08, 0.0, 0.0, 0.0, 8.999999999999999e-08)"
1970/01/01/01:00:12.491000,89,12,491000000,base_link,0.000138685336899,-0.000335457242272,-0.697140323163,-0.716934744666,"(1.0, 0.0, 0.0, 0.0, 1.0, 0.0, 0.0, 0.0, 1.0)",-0.00590059673414,0.00803817436099,-0.00259069353342,"(1.2184696791468346e-07, 0.0, 0.0, 0.0, 1.2184696791468346e-07, 0.0, 0.0, 0.0, 1.2184696791468346e-07)",0.0,0.0,0.0,"(-1.0, 0.0, 0.0, 0.0, 8.999999999999999e-08, 0.0, 0.0, 0.0, 8.999999999999999e-08)"
1970/01/01/01:00:12.511000,90,12,511000000,base_link,0.000178277434019,-0.000364481408139,-0.697187847686,-0.716888400255,"(1.0, 0.0, 0.0, 0.0, 1.0, 0.0, 0.0, 0.0, 1.0)",0.00352953490801,0.0064386408776,0.0100616905838,"(1.2184696791468346e-07, 0.0, 0.0, 0.0, 1.2184696791468346e-07, 0.0, 0.0, 0.0, 1.2184696791468346e-07)",0.0,0.0,0.0,"(-1.0, 0.0, 0.0, 0.0, 8.999999999999999e-08, 0.0, 0.0, 0.0, 8.999999999999999e-08)"
1970/01/01/01:00:12.531000,91,12,531000000,base_link,0.000173129303487,-0.000395316149523,-0.697262080799,-0.716816274484,"(1.0, 0.0, 0.0, 0.0, 1.0, 0.0, 0.0, 0.0, 1.0)",0.00319779640995,0.00209289276972,0.00917951762676,"(1.2184696791468346e-07, 0.0, 0.0, 0.0, 1.2184696791468346e-07, 0.0, 0.0, 0.0, 1.2184696791468346e-07)",0.0,0.0,0.0,"(-1.0, 0.0, 0.0, 0.0, 8.999999999999999e-08, 0.0, 0.0, 0.0, 8.999999999999999e-08)"
1970/01/01/01:00:12.551000,92,12,551000000,base_link,0.000295185547799,-0.000506440596161,-0.697303455175,-0.716775827339,"(1.0, 0.0, 0.0, 0.0, 1.0, 0.0, 0.0, 0.0, 1.0)",-0.00319041637704,0.0205007307231,0.00164176931139,"(1.2184696791468346e-07, 0.0, 0.0, 0.0, 1.2184696791468346e-07, 0.0, 0.0, 0.0, 1.2184696791468346e-07)",0.0,0.0,0.0,"(-1.0, 0.0, 0.0, 0.0, 8.999999999999999e-08, 0.0, 0.0, 0.0, 8.999999999999999e-08)"
1970/01/01/01:00:12.571000,93,12,571000000,base_link,0.000307113054478,-0.000530822270201,-0.697345034358,-0.716735343974,"(1.0, 0.0, 0.0, 0.0, 1.0, 0.0, 0.0, 0.0, 1.0)",0.000795493950136,0.000310051720589,0.00353825860657,"(1.2184696791468346e-07, 0.0, 0.0, 0.0, 1.2184696791468346e-07, 0.0, 0.0, 0.0, 1.2184696791468346e-07)",0.0,0.0,0.0,"(-1.0, 0.0, 0.0, 0.0, 8.999999999999999e-08, 0.0, 0.0, 0.0, 8.999999999999999e-08)"
1970/01/01/01:00:12.591000,94,12,591000000,base_link,0.000292087744143,-0.000598175197868,-0.697372986279,-0.716708150696,"(1.0, 0.0, 0.0, 0.0, 1.0, 0.0, 0.0, 0.0, 1.0)",0.00847074203193,0.00210520206019,0.00505142472684,"(1.2184696791468346e-07, 0.0, 0.0, 0.0, 1.2184696791468346e-07, 0.0, 0.0, 0.0, 1.2184696791468346e-07)",0.0,0.0,0.0,"(-1.0, 0.0, 0.0, 0.0, 8.999999999999999e-08, 0.0, 0.0, 0.0, 8.999999999999999e-08)"
1970/01/01/01:00:12.611000,95,12,611000000,base_link,0.00027122211126,-0.000604817421833,-0.697360820987,-0.716720063107,"(1.0, 0.0, 0.0, 0.0, 1.0, 0.0, 0.0, 0.0, 1.0)",0.00264120660722,-0.00250108307227,-0.00389501987956,"(1.2184696791468346e-07, 0.0, 0.0, 0.0, 1.2184696791468346e-07, 0.0, 0.0, 0.0, 1.2184696791468346e-07)",0.0,0.0,0.0,"(-1.0, 0.0, 0.0, 0.0, 8.999999999999999e-08, 0.0, 0.0, 0.0, 8.999999999999999e-08)"
1970/01/01/01:00:12.631000,96,12,631000000,base_link,0.000246773893355,-0.000612780295069,-0.69738555065,-0.7166959235,"(1.0, 0.0, 0.0, 0.0, 1.0, 0.0, 0.0, 0.0, 1.0)",0.00444751651958,-0.00349514419213,0.00299380300567,"(1.2184696791468346e-07, 0.0, 0.0, 0.0, 1.2184696791468346e-07, 0.0, 0.0, 0.0, 1.2184696791468346e-07)",0.0,0.0,0.0,"(-1.0, 0.0, 0.0, 0.0, 8.999999999999999e-08, 0.0, 0.0, 0.0, 8.999999999999999e-08)"
1970/01/01/01:00:12.651000,97,12,651000000,base_link,0.000267820698007,-0.000592321899935,-0.69738601229,-0.716695546154,"(1.0, 0.0, 0.0, 0.0, 1.0, 0.0, 0.0, 0.0, 1.0)",-0.00459662405774,0.000890575000085,-0.000799379195087,"(1.2184696791468346e-07, 0.0, 0.0, 0.0, 1.2184696791468346e-07, 0.0, 0.0, 0.0, 1.2184696791468346e-07)",0.0,0.0,0.0,"(-1.0, 0.0, 0.0, 0.0, 8.999999999999999e-08, 0.0, 0.0, 0.0, 8.999999999999999e-08)"
1970/01/01/01:00:12.670000,98,12,671000000,base_link,0.000140493103312,-0.000571288883559,-0.697355188455,-0.716725527051,"(1.0, 0.0, 0.0, 0.0, 1.0, 0.0, 0.0, 0.0, 1.0)",0.01035403274,-0.0151613745838,-0.00732124131173,"(1.2184696791468346e-07, 0.0, 0.0, 0.0, 1.2184696791468346e-07, 0.0, 0.0, 0.0, 1.2184696791468346e-07)",0.0,0.0,0.0,"(-1.0, 0.0, 0.0, 0.0, 8.999999999999999e-08, 0.0, 0.0, 0.0, 8.999999999999999e-08)"
1970/01/01/01:00:12.691000,99,12,690000000,base_link,0.000111012926242,-0.000621247819194,-0.697292326431,-0.716786703202,"(1.0, 0.0, 0.0, 0.0, 1.0, 0.0, 0.0, 0.0, 1.0)",0.00699099246413,0.00202862825245,-0.00958555284888,"(1.2184696791468346e-07, 0.0, 0.0, 0.0, 1.2184696791468346e-07, 0.0, 0.0, 0.0, 1.2184696791468346e-07)",0.0,0.0,0.0,"(-1.0, 0.0, 0.0, 0.0, 8.999999999999999e-08, 0.0, 0.0, 0.0, 8.999999999999999e-08)"
1970/01/01/01:00:12.711000,100,12,711000000,base_link,0.000118831434174,-0.000649726802816,-0.697304867752,-0.716774499055,"(1.0, 0.0, 0.0, 0.0, 1.0, 0.0, 0.0, 0.0, 1.0)",0.00487207248807,0.00341152120382,0.00473752152175,"(1.2184696791468346e-07, 0.0, 0.0, 0.0, 1.2184696791468346e-07, 0.0, 0.0, 0.0, 1.2184696791468346e-07)",0.0,0.0,0.0,"(-1.0, 0.0, 0.0, 0.0, 8.999999999999999e-08, 0.0, 0.0, 0.0, 8.999999999999999e-08)"
1970/01/01/01:00:12.731000,101,12,731000000,base_link,9.35968935476e-05,-0.000711720557016,-0.697316448916,-0.716763170772,"(1.0, 0.0, 0.0, 0.0, 1.0, 0.0, 0.0, 0.0, 1.0)",0.00684651872143,0.00180974020623,-0.00262300763279,"(1.2184696791468346e-07, 0.0, 0.0, 0.0, 1.2184696791468346e-07, 0.0, 0.0, 0.0, 1.2184696791468346e-07)",0.0,0.0,0.0,"(-1.0, 0.0, 0.0, 0.0, 8.999999999999999e-08, 0.0, 0.0, 0.0, 8.999999999999999e-08)"
1970/01/01/01:00:12.751000,102,12,751000000,base_link,0.000126392121932,-0.000772764628296,-0.697287026465,-0.716791581699,"(1.0, 0.0, 0.0, 0.0, 1.0, 0.0, 0.0, 0.0, 1.0)",0.00342166260816,0.00709473341703,-0.00601253751665,"(1.2184696791468346e-07, 0.0, 0.0, 0.0, 1.2184696791468346e-07, 0.0, 0.0, 0.0, 1.2184696791468346e-07)",0.0,0.0,0.0,"(-1.0, 0.0, 0.0, 0.0, 8.999999999999999e-08, 0.0, 0.0, 0.0, 8.999999999999999e-08)"
1970/01/01/01:00:12.771000,103,12,771000000,base_link,0.00014061602476,-0.000739418157,-0.69725332084,-0.716824444388,"(1.0, 0.0, 0.0, 0.0, 1.0, 0.0, 0.0, 0.0, 1.0)",-0.00142053270247,-0.00254358234815,-0.0014486790169,"(1.2184696791468346e-07, 0.0, 0.0, 0.0, 1.2184696791468346e-07, 0.0, 0.0, 0.0, 1.2184696791468346e-07)",0.0,0.0,0.0,"(-1.0, 0.0, 0.0, 0.0, 8.999999999999999e-08, 0.0, 0.0, 0.0, 8.999999999999999e-08)"
1970/01/01/01:00:12.791000,104,12,791000000,base_link,0.000136744709131,-0.000825270855247,-0.697209573069,-0.716867012046,"(1.0, 0.0, 0.0, 0.0, 1.0, 0.0, 0.0, 0.0, 1.0)",0.0112253446132,0.00523254880682,-0.0051473909989,"(1.2184696791468346e-07, 0.0, 0.0, 0.0, 1.2184696791468346e-07, 0.0, 0.0, 0.0, 1.2184696791468346e-07)",0.0,0.0,0.0,"(-1.0, 0.0, 0.0, 0.0, 8.999999999999999e-08, 0.0, 0.0, 0.0, 8.999999999999999e-08)"
1970/01/01/01:00:12.810000,105,12,811000000,base_link,6.58344475089e-05,-0.000863898524225,-0.697219615873,-0.716857222123,"(1.0, 0.0, 0.0, 0.0, 1.0, 0.0, 0.0, 0.0, 1.0)",0.00787081755698,-0.000238715685555,0.00206303503364,"(1.2184696791468346e-07, 0.0, 0.0, 0.0, 1.2184696791468346e-07, 0.0, 0.0, 0.0, 1.2184696791468346e-07)",0.0,0.0,0.0,"(-1.0, 0.0, 0.0, 0.0, 8.999999999999999e-08, 0.0, 0.0, 0.0, 8.999999999999999e-08)"
1970/01/01/01:00:12.831000,106,12,831000000,base_link,5.19706038907e-05,-0.000884482896865,-0.697189769319,-0.716886141447,"(1.0, 0.0, 0.0, 0.0, 1.0, 0.0, 0.0, 0.0, 1.0)",0.0029951876495,-0.00247623585165,-0.00648520933464,"(1.2184696791468346e-07, 0.0, 0.0, 0.0, 1.2184696791468346e-07, 0.0, 0.0, 0.0, 1.2184696791468346e-07)",0.0,0.0,0.0,"(-1.0, 0.0, 0.0, 0.0, 8.999999999999999e-08, 0.0, 0.0, 0.0, 8.999999999999999e-08)"
1970/01/01/01:00:12.851000,107,12,851000000,base_link,1.06696146413e-05,-0.000794741102288,-0.697210693254,-0.716865891862,"(1.0, 0.0, 0.0, 0.0, 1.0, 0.0, 0.0, 0.0, 1.0)",-0.00472411513329,-0.00993841700256,0.00657977769151,"(1.2184696791468346e-07, 0.0, 0.0, 0.0, 1.2184696791468346e-07, 0.0, 0.0, 0.0, 1.2184696791468346e-07)",0.0,0.0,0.0,"(-1.0, 0.0, 0.0, 0.0, 8.999999999999999e-08, 0.0, 0.0, 0.0, 8.999999999999999e-08)"
1970/01/01/01:00:12.871000,108,12,871000000,base_link,6.21677540065e-05,-0.000778371208704,-0.697231661311,-0.716845598154,"(1.0, 0.0, 0.0, 0.0, 1.0, 0.0, 0.0, 0.0, 1.0)",-0.00643609417602,0.0057872813195,0.00383821036667,"(1.2184696791468346e-07, 0.0, 0.0, 0.0, 1.2184696791468346e-07, 0.0, 0.0, 0.0, 1.2184696791468346e-07)",0.0,0.0,0.0,"(-1.0, 0.0, 0.0, 0.0, 8.999999999999999e-08, 0.0, 0.0, 0.0, 8.999999999999999e-08)"
1970/01/01/01:00:12.891000,109,12,891000000,base_link,0.000107790688544,-0.000805126513815,-0.697218973134,-0.716857864863,"(1.0, 0.0, 0.0, 0.0, 1.0, 0.0, 0.0, 0.0, 1.0)",-3.61075944966e-05,0.0070242471993,-0.00219688983634,"(1.2184696791468346e-07, 0.0, 0.0, 0.0, 1.2184696791468346e-07, 0.0, 0.0, 0.0, 1.2184696791468346e-07)",0.0,0.0,0.0,"(-1.0, 0.0, 0.0, 0.0, 8.999999999999999e-08, 0.0, 0.0, 0.0, 8.999999999999999e-08)"
1970/01/01/01:00:12.911000,110,12,911000000,base_link,0.000109970923615,-0.000845576005015,-0.697229903655,-0.716847018635,"(1.0, 0.0, 0.0, 0.0, 1.0, 0.0, 0.0, 0.0, 1.0)",0.00480030896142,-0.00108754611574,0.00933427736163,"(1.2184696791468346e-07, 0.0, 0.0, 0.0, 1.2184696791468346e-07, 0.0, 0.0, 0.0, 1.2184696791468346e-07)",0.0,0.0,0.0,"(-1.0, 0.0, 0.0, 0.0, 8.999999999999999e-08, 0.0, 0.0, 0.0, 8.999999999999999e-08)"
1970/01/01/01:00:12.931000,111,12,931000000,base_link,0.00014135439721,-0.000884998166784,-0.697262965224,-0.716814968591,"(1.0, 0.0, 0.0, 0.0, 1.0, 0.0, 0.0, 0.0, 1.0)",-0.00442232144997,0.00828235130757,0.00593566149473,"(1.2184696791468346e-07, 0.0, 0.0, 0.0, 1.2184696791468346e-07, 0.0, 0.0, 0.0, 1.2184696791468346e-07)",0.0,0.0,0.0,"(-1.0, 0.0, 0.0, 0.0, 8.999999999999999e-08, 0.0, 0.0, 0.0, 8.999999999999999e-08)"
1970/01/01/01:00:12.951000,112,12,951000000,base_link,0.000203150608637,-0.000945593028392,-0.697307953692,-0.716770991647,"(1.0, 0.0, 0.0, 0.0, 1.0, 0.0, 0.0, 0.0, 1.0)",-0.000460133742308,0.00437087379396,0.00801955163479,"(1.2184696791468346e-07, 0.0, 0.0, 0.0, 1.2184696791468346e-07, 0.0, 0.0, 0.0, 1.2184696791468346e-07)",0.0,0.0,0.0,"(-1.0, 0.0, 0.0, 0.0, 8.999999999999999e-08, 0.0, 0.0, 0.0, 8.999999999999999e-08)"
1970/01/01/01:00:12.971000,113,12,971000000,base_link,0.00015843947013,-0.00092685060474,-0.697332733405,-0.716747054871,"(1.0, 0.0, 0.0, 0.0, 1.0, 0.0, 0.0, 0.0, 1.0)",0.000537169631571,-0.00477069243789,0.00148536125198,"(1.2184696791468346e-07, 0.0, 0.0, 0.0, 1.2184696791468346e-07, 0.0, 0.0, 0.0, 1.2184696791468346e-07)",0.0,0.0,0.0,"(-1.0, 0.0, 0.0, 0.0, 8.999999999999999e-08, 0.0, 0.0, 0.0, 8.999999999999999e-08)"
1970/01/01/01:00:12.991000,114,12,990000000,base_link,0.000120942233959,-0.000940127726361,-0.697342626719,-0.716737414438,"(1.0, 0.0, 0.0, 0.0, 1.0, 0.0, 0.0, 0.0, 1.0)",0.00384042039514,0.00120575970504,0.00018746056594,"(1.2184696791468346e-07, 0.0, 0.0, 0.0, 1.2184696791468346e-07, 0.0, 0.0, 0.0, 1.2184696791468346e-07)",0.0,0.0,0.0,"(-1.0, 0.0, 0.0, 0.0, 8.999999999999999e-08, 0.0, 0.0, 0.0, 8.999999999999999e-08)"
1970/01/01/01:00:13.011000,115,13,10000000,base_link,9.39984204818e-05,-0.000922991451606,-0.697363338602,-0.716717124023,"(1.0, 0.0, 0.0, 0.0, 1.0, 0.0, 0.0, 0.0, 1.0)",7.19712552382e-05,-0.00436197547242,0.00112610019278,"(1.2184696791468346e-07, 0.0, 0.0, 0.0, 1.2184696791468346e-07, 0.0, 0.0, 0.0, 1.2184696791468346e-07)",0.0,0.0,0.0,"(-1.0, 0.0, 0.0, 0.0, 8.999999999999999e-08, 0.0, 0.0, 0.0, 8.999999999999999e-08)"
1970/01/01/01:00:13.031000,116,13,31000000,base_link,9.45187941202e-05,-0.000960894680466,-0.697338224349,-0.716741648221,"(1.0, 0.0, 0.0, 0.0, 1.0, 0.0, 0.0, 0.0, 1.0)",0.00218426180072,0.00369333988056,-0.00168546650093,"(1.2184696791468346e-07, 0.0, 0.0, 0.0, 1.2184696791468346e-07, 0.0, 0.0, 0.0, 1.2184696791468346e-07)",0.0,0.0,0.0,"(-1.0, 0.0, 0.0, 0.0, 8.999999999999999e-08, 0.0, 0.0, 0.0, 8.999999999999999e-08)"
1970/01/01/01:00:13.051000,117,13,51000000,base_link,9.75330346513e-05,-0.00101404885347,-0.697418667536,-0.716663228082,"(1.0, 0.0, 0.0, 0.0, 1.0, 0.0, 0.0, 0.0, 1.0)",0.00409110356122,0.0041196513921,0.00861015170813,"(1.2184696791468346e-07, 0.0, 0.0, 0.0, 1.2184696791468346e-07, 0.0, 0.0, 0.0, 1.2184696791468346e-07)",0.0,0.0,0.0,"(-1.0, 0.0, 0.0, 0.0, 8.999999999999999e-08, 0.0, 0.0, 0.0, 8.999999999999999e-08)"
1970/01/01/01:00:13.071000,118,13,71000000,base_link,4.79180856248e-05,-0.000985188099252,-0.697408731417,-0.716672995614,"(1.0, 0.0, 0.0, 0.0, 1.0, 0.0, 0.0, 0.0, 1.0)",0.00584883661941,-0.0118700927123,0.00215640407987,"(1.2184696791468346e-07, 0.0, 0.0, 0.0, 1.2184696791468346e-07, 0.0, 0.0, 0.0, 1.2184696791468346e-07)",0.0,0.0,0.0,"(-1.0, 0.0, 0.0, 0.0, 8.999999999999999e-08, 0.0, 0.0, 0.0, 8.999999999999999e-08)"
1970/01/01/01:00:13.091000,119,13,91000000,base_link,2.19027375862e-05,-0.000991507698146,-0.697386747884,-0.716694389091,"(1.0, 0.0, 0.0, 0.0, 1.0, 0.0, 0.0, 0.0, 1.0)",-0.000167075952049,0.000135905051138,-0.00357931246981,"(1.2184696791468346e-07, 0.0, 0.0, 0.0, 1.2184696791468346e-07, 0.0, 0.0, 0.0, 1.2184696791468346e-07)",0.0,0.0,0.0,"(-1.0, 0.0, 0.0, 0.0, 8.999999999999999e-08, 0.0, 0.0, 0.0, 8.999999999999999e-08)"
1970/01/01/01:00:13.110000,120,13,110000000,base_link,0.00010752558322,-0.000975226461116,-0.697444770923,-0.716637883338,"(1.0, 0.0, 0.0, 0.0, 1.0, 0.0, 0.0, 0.0, 1.0)",-0.00794323720038,0.00296241091564,0.0125414002687,"(1.2184696791468346e-07, 0.0, 0.0, 0.0, 1.2184696791468346e-07, 0.0, 0.0, 0.0, 1.2184696791468346e-07)",0.0,0.0,0.0,"(-1.0, 0.0, 0.0, 0.0, 8.999999999999999e-08, 0.0, 0.0, 0.0, 8.999999999999999e-08)"
1970/01/01/01:00:13.131000,121,13,131000000,base_link,7.73574123554e-05,-0.00101820085312,-0.697376288221,-0.716704595873,"(1.0, 0.0, 0.0, 0.0, 1.0, 0.0, 0.0, 0.0, 1.0)",0.000941277714446,-0.00106401916128,-0.00604447443038,"(1.2184696791468346e-07, 0.0, 0.0, 0.0, 1.2184696791468346e-07, 0.0, 0.0, 0.0, 1.2184696791468346e-07)",0.0,0.0,0.0,"(-1.0, 0.0, 0.0, 0.0, 8.999999999999999e-08, 0.0, 0.0, 0.0, 8.999999999999999e-08)"
1970/01/01/01:00:13.151000,122,13,150000000,base_link,8.39245416661e-05,-0.00102702012233,-0.697353193066,-0.716727016679,"(1.0, 0.0, 0.0, 0.0, 1.0, 0.0, 0.0, 0.0, 1.0)",0.000460094772279,-0.000696918286849,-0.00261210137978,"(1.2184696791468346e-07, 0.0, 0.0, 0.0, 1.2184696791468346e-07, 0.0, 0.0, 0.0, 1.2184696791468346e-07)",0.0,0.0,0.0,"(-1.0, 0.0, 0.0, 0.0, 8.999999999999999e-08, 0.0, 0.0, 0.0, 8.999999999999999e-08)"
1970/01/01/01:00:13.171000,123,13,171000000,base_link,8.50426679226e-05,-0.00105343994017,-0.697338660305,-0.716741127971,"(1.0, 0.0, 0.0, 0.0, 1.0, 0.0, 0.0, 0.0, 1.0)",0.000358102173777,0.00359639665112,0.000129361986183,"(1.2184696791468346e-07, 0.0, 0.0, 0.0, 1.2184696791468346e-07, 0.0, 0.0, 0.0, 1.2184696791468346e-07)",0.0,0.0,0.0,"(-1.0, 0.0, 0.0, 0.0, 8.999999999999999e-08, 0.0, 0.0, 0.0, 8.999999999999999e-08)"
1970/01/01/01:00:13.191000,124,13,191000000,base_link,0.000178079901536,-0.000990683488535,-0.697283646156,-0.716794624834,"(1.0, 0.0, 0.0, 0.0, 1.0, 0.0, 0.0, 0.0, 1.0)",-0.0159885454923,-0.000225226278417,-0.00764358509332,"(1.2184696791468346e-07, 0.0, 0.0, 0.0, 1.2184696791468346e-07, 0.0, 0.0, 0.0, 1.2184696791468346e-07)",0.0,0.0,0.0,"(-1.0, 0.0, 0.0, 0.0, 8.999999999999999e-08, 0.0, 0.0, 0.0, 8.999999999999999e-08)"
1970/01/01/01:00:13.211000,125,13,211000000,base_link,0.000239676779772,-0.00111984176493,-0.697260943492,-0.71681648456,"(1.0, 0.0, 0.0, 0.0, 1.0, 0.0, 0.0, 0.0, 1.0)",0.00927261821926,0.0135578811169,0.0010564152617,"(1.2184696791468346e-07, 0.0, 0.0, 0.0, 1.2184696791468346e-07, 0.0, 0.0, 0.0, 1.2184696791468346e-07)",0.0,0.0,0.0,"(-1.0, 0.0, 0.0, 0.0, 8.999999999999999e-08, 0.0, 0.0, 0.0, 8.999999999999999e-08)"
1970/01/01/01:00:13.231000,126,13,231000000,base_link,0.000211239963578,-0.00114013115079,-0.697242990252,-0.716834016332,"(1.0, 0.0, 0.0, 0.0, 1.0, 0.0, 0.0, 0.0, 1.0)",-0.00195342139341,0.00100932270288,-0.00137121451553,"(1.2184696791468346e-07, 0.0, 0.0, 0.0, 1.2184696791468346e-07, 0.0, 0.0, 0.0, 1.2184696791468346e-07)",0.0,0.0,0.0,"(-1.0, 0.0, 0.0, 0.0, 8.999999999999999e-08, 0.0, 0.0, 0.0, 8.999999999999999e-08)"
1970/01/01/01:00:13.250000,127,13,250000000,base_link,0.000184084716155,-0.00112935629251,-0.697206851305,-0.716869143755,"(1.0, 0.0, 0.0, 0.0, 1.0, 0.0, 0.0, 0.0, 1.0)",-0.000180230301339,-0.00671155378222,-0.00351575855166,"(1.2184696791468346e-07, 0.0, 0.0, 0.0, 1.2184696791468346e-07, 0.0, 0.0, 0.0, 1.2184696791468346e-07)",0.0,0.0,0.0,"(-1.0, 0.0, 0.0, 0.0, 8.999999999999999e-08, 0.0, 0.0, 0.0, 8.999999999999999e-08)"
1970/01/01/01:00:13.271000,128,13,271000000,base_link,0.000213419869376,-0.00115178981697,-0.697214912548,-0.716861335392,"(1.0, 0.0, 0.0, 0.0, 1.0, 0.0, 0.0, 0.0, 1.0)",-0.00086413155077,0.00269072363153,0.00141264742706,"(1.2184696791468346e-07, 0.0, 0.0, 0.0, 1.2184696791468346e-07, 0.0, 0.0, 0.0, 1.2184696791468346e-07)",0.0,0.0,0.0,"(-1.0, 0.0, 0.0, 0.0, 8.999999999999999e-08, 0.0, 0.0, 0.0, 8.999999999999999e-08)"
1970/01/01/01:00:13.291000,129,13,291000000,base_link,0.000263107052503,-0.00118698276475,-0.697259775234,-0.716817484231,"(1.0, 0.0, 0.0, 0.0, 1.0, 0.0, 0.0, 0.0, 1.0)",-0.00153461913578,0.00447197351605,0.0100580248982,"(1.2184696791468346e-07, 0.0, 0.0, 0.0, 1.2184696791468346e-07, 0.0, 0.0, 0.0, 1.2184696791468346e-07)",0.0,0.0,0.0,"(-1.0, 0.0, 0.0, 0.0, 8.999999999999999e-08, 0.0, 0.0, 0.0, 8.999999999999999e-08)"
1970/01/01/01:00:13.311000,130,13,311000000,base_link,0.000322666723304,-0.00125744035934,-0.697261568451,-0.716815691014,"(1.0, 0.0, 0.0, 0.0, 1.0, 0.0, 0.0, 0.0, 1.0)",-0.00131364353001,0.00912831537426,-0.000148112885654,"(1.2184696791468346e-07, 0.0, 0.0, 0.0, 1.2184696791468346e-07, 0.0, 0.0, 0.0, 1.2184696791468346e-07)",0.0,0.0,0.0,"(-1.0, 0.0, 0.0, 0.0, 8.999999999999999e-08, 0.0, 0.0, 0.0, 8.999999999999999e-08)"
1970/01/01/01:00:13.331000,131,13,331000000,base_link,0.000368477013754,-0.00115967831583,-0.697245953044,-0.71683105354,"(1.0, 0.0, 0.0, 0.0, 1.0, 0.0, 0.0, 0.0, 1.0)",-0.00960250198841,-0.00515223573893,-0.00779280578718,"(1.2184696791468346e-07, 0.0, 0.0, 0.0, 1.2184696791468346e-07, 0.0, 0.0, 0.0, 1.2184696791468346e-07)",0.0,0.0,0.0,"(-1.0, 0.0, 0.0, 0.0, 8.999999999999999e-08, 0.0, 0.0, 0.0, 8.999999999999999e-08)"
1970/01/01/01:00:13.351000,132,13,351000000,base_link,0.000318229779682,-0.00118406401317,-0.697252957323,-0.716824217848,"(1.0, 0.0, 0.0, 0.0, 1.0, 0.0, 0.0, 0.0, 1.0)",0.00744432862848,0.000107088359073,0.00310730584897,"(1.2184696791468346e-07, 0.0, 0.0, 0.0, 1.2184696791468346e-07, 0.0, 0.0, 0.0, 1.2184696791468346e-07)",0.0,0.0,0.0,"(-1.0, 0.0, 0.0, 0.0, 8.999999999999999e-08, 0.0, 0.0, 0.0, 8.999999999999999e-08)"
1970/01/01/01:00:13.371000,133,13,371000000,base_link,0.000258494483292,-0.00119305894913,-0.697285413031,-0.716792689371,"(1.0, 0.0, 0.0, 0.0, 1.0, 0.0, 0.0, 0.0, 1.0)",0.00131231709383,-0.0044075329788,0.00412248913199,"(1.2184696791468346e-07, 0.0, 0.0, 0.0, 1.2184696791468346e-07, 0.0, 0.0, 0.0, 1.2184696791468346e-07)",0.0,0.0,0.0,"(-1.0, 0.0, 0.0, 0.0, 8.999999999999999e-08, 0.0, 0.0, 0.0, 8.999999999999999e-08)"
1970/01/01/01:00:13.391000,134,13,391000000,base_link,0.000336388979853,-0.00115186085746,-0.697355216114,-0.716724656455,"(1.0, 0.0, 0.0, 0.0, 1.0, 0.0, 0.0, 0.0, 1.0)",-0.00735711073503,0.00460798339918,0.00959025043994,"(1.2184696791468346e-07, 0.0, 0.0, 0.0, 1.2184696791468346e-07, 0.0, 0.0, 0.0, 1.2184696791468346e-07)",0.0,0.0,0.0,"(-1.0, 0.0, 0.0, 0.0, 8.999999999999999e-08, 0.0, 0.0, 0.0, 8.999999999999999e-08)"
1970/01/01/01:00:13.410000,135,13,411000000,base_link,0.000410195396744,-0.00118374704747,-0.697359274724,-0.716720682139,"(1.0, 0.0, 0.0, 0.0, 1.0, 0.0, 0.0, 0.0, 1.0)",-0.00250886357389,0.00875083170831,0.00140409893356,"(1.2184696791468346e-07, 0.0, 0.0, 0.0, 1.2184696791468346e-07, 0.0, 0.0, 0.0, 1.2184696791468346e-07)",0.0,0.0,0.0,"(-1.0, 0.0, 0.0, 0.0, 8.999999999999999e-08, 0.0, 0.0, 0.0, 8.999999999999999e-08)"
1970/01/01/01:00:13.431000,136,13,431000000,base_link,0.000450467986426,-0.00114913530637,-0.697368126221,-0.716712083524,"(1.0, 0.0, 0.0, 0.0, 1.0, 0.0, 0.0, 0.0, 1.0)",-0.00531993433833,-0.00407721288502,0.00386132253334,"(1.2184696791468346e-07, 0.0, 0.0, 0.0, 1.2184696791468346e-07, 0.0, 0.0, 0.0, 1.2184696791468346e-07)",0.0,0.0,0.0,"(-1.0, 0.0, 0.0, 0.0, 8.999999999999999e-08, 0.0, 0.0, 0.0, 8.999999999999999e-08)"
1970/01/01/01:00:13.450000,137,13,450000000,base_link,0.000472164393786,-0.0012074067818,-0.69737159675,-0.7167085287,"(1.0, 0.0, 0.0, 0.0, 1.0, 0.0, 0.0, 0.0, 1.0)",0.00296835764311,0.00639173435047,-0.00152707123198,"(1.2184696791468346e-07, 0.0, 0.0, 0.0, 1.2184696791468346e-07, 0.0, 0.0, 0.0, 1.2184696791468346e-07)",0.0,0.0,0.0,"(-1.0, 0.0, 0.0, 0.0, 8.999999999999999e-08, 0.0, 0.0, 0.0, 8.999999999999999e-08)"
1970/01/01/01:00:13.471000,138,13,471000000,base_link,0.000435276599398,-0.00125884445855,-0.697376032706,-0.716704261332,"(1.0, 0.0, 0.0, 0.0, 1.0, 0.0, 0.0, 0.0, 1.0)",0.00388827361166,-0.00355961662717,0.00198960420676,"(1.2184696791468346e-07, 0.0, 0.0, 0.0, 1.2184696791468346e-07, 0.0, 0.0, 0.0, 1.2184696791468346e-07)",0.0,0.0,0.0,"(-1.0, 0.0, 0.0, 0.0, 8.999999999999999e-08, 0.0, 0.0, 0.0, 8.999999999999999e-08)"
1970/01/01/01:00:13.490000,139,13,490000000,base_link,0.000390938896786,-0.00132894277595,-0.697378244099,-0.716701965646,"(1.0, 0.0, 0.0, 0.0, 1.0, 0.0, 0.0, 0.0, 1.0)",0.00791680812836,0.00348214781843,0.000111332839879,"(1.2184696791468346e-07, 0.0, 0.0, 0.0, 1.2184696791468346e-07, 0.0, 0.0, 0.0, 1.2184696791468346e-07)",0.0,0.0,0.0,"(-1.0, 0.0, 0.0, 0.0, 8.999999999999999e-08, 0.0, 0.0, 0.0, 8.999999999999999e-08)"
1970/01/01/01:00:13.511000,140,13,511000000,base_link,0.000418712064753,-0.00132493318655,-0.697372018219,-0.716708022938,"(1.0, 0.0, 0.0, 0.0, 1.0, 0.0, 0.0, 0.0, 1.0)",-0.00186638534069,-0.00203910050914,-0.00203967676498,"(1.2184696791468346e-07, 0.0, 0.0, 0.0, 1.2184696791468346e-07, 0.0, 0.0, 0.0, 1.2184696791468346e-07)",0.0,0.0,0.0,"(-1.0, 0.0, 0.0, 0.0, 8.999999999999999e-08, 0.0, 0.0, 0.0, 8.999999999999999e-08)"
1970/01/01/01:00:13.531000,141,13,531000000,base_link,0.000508715960044,-0.00132484893402,-0.697390964544,-0.716689582375,"(1.0, 0.0, 0.0, 0.0, 1.0, 0.0, 0.0, 0.0, 1.0)",-0.00134695484303,0.0012930855155,-0.00161429436412,"(1.2184696791468346e-07, 0.0, 0.0, 0.0, 1.2184696791468346e-07, 0.0, 0.0, 0.0, 1.2184696791468346e-07)",0.0,0.0,0.0,"(-1.0, 0.0, 0.0, 0.0, 8.999999999999999e-08, 0.0, 0.0, 0.0, 8.999999999999999e-08)"
1970/01/01/01:00:13.551000,142,13,551000000,base_link,0.000521416320153,-0.00129209721073,-0.697365031062,-0.716714841508,"(1.0, 0.0, 0.0, 0.0, 1.0, 0.0, 0.0, 0.0, 1.0)",-0.00414691632614,-0.00353028601967,-0.0016768919304,"(1.2184696791468346e-07, 0.0, 0.0, 0.0, 1.2184696791468346e-07, 0.0, 0.0, 0.0, 1.2184696791468346e-07)",0.0,0.0,0.0,"(-1.0, 0.0, 0.0, 0.0, 8.999999999999999e-08, 0.0, 0.0, 0.0, 8.999999999999999e-08)"
1970/01/01/01:00:13.571000,143,13,570000000,base_link,0.000506838449652,-0.00128029642242,-0.697381681042,-0.716698697289,"(1.0, 0.0, 0.0, 0.0, 1.0, 0.0, 0.0, 0.0, 1.0)",-0.000621091108769,-0.00120274047367,0.00524420104921,"(1.2184696791468346e-07, 0.0, 0.0, 0.0, 1.2184696791468346e-07, 0.0, 0.0, 0.0, 1.2184696791468346e-07)",0.0,0.0,0.0,"(-1.0, 0.0, 0.0, 0.0, 8.999999999999999e-08, 0.0, 0.0, 0.0, 8.999999999999999e-08)"
1970/01/01/01:00:13.591000,144,13,591000000,base_link,0.000550592578932,-0.00121621582299,-0.697393921409,-0.716686794097,"(1.0, 0.0, 0.0, 0.0, 1.0, 0.0, 0.0, 0.0, 1.0)",-0.00511910812929,-0.0040142997168,0.00146679836325,"(1.2184696791468346e-07, 0.0, 0.0, 0.0, 1.2184696791468346e-07, 0.0, 0.0, 0.0, 1.2184696791468346e-07)",0.0,0.0,0.0,"(-1.0, 0.0, 0.0, 0.0, 8.999999999999999e-08, 0.0, 0.0, 0.0, 8.999999999999999e-08)"
1970/01/01/01:00:13.611000,145,13,611000000,base_link,0.000564106673678,-0.00116868066042,-0.697396169022,-0.716684799366,"(1.0, 0.0, 0.0, 0.0, 1.0, 0.0, 0.0, 0.0, 1.0)",-0.00489011965692,-0.000177703332156,0.00509683508426,"(1.2184696791468346e-07, 0.0, 0.0, 0.0, 1.2184696791468346e-07, 0.0, 0.0, 0.0, 1.2184696791468346e-07)",0.0,0.0,0.0,"(-1.0, 0.0, 0.0, 0.0, 8.999999999999999e-08, 0.0, 0.0, 0.0, 8.999999999999999e-08)"
1970/01/01/01:00:13.631000,146,13,631000000,base_link,0.000599414990223,-0.0011899823115,-0.697428057064,-0.716653669967,"(1.0, 0.0, 0.0, 0.0, 1.0, 0.0, 0.0, 0.0, 1.0)",0.00309111597016,-0.000817777705379,0.00832798983902,"(1.2184696791468346e-07, 0.0, 0.0, 0.0, 1.2184696791468346e-07, 0.0, 0.0, 0.0, 1.2184696791468346e-07)",0.0,0.0,0.0,"(-1.0, 0.0, 0.0, 0.0, 8.999999999999999e-08, 0.0, 0.0, 0.0, 8.999999999999999e-08)"
1970/01/01/01:00:13.651000,147,13,651000000,base_link,0.000539071939571,-0.00124024567992,-0.697489157482,-0.716594171129,"(1.0, 0.0, 0.0, 0.0, 1.0, 0.0, 0.0, 0.0, 1.0)",0.00902605801821,-0.00117245386355,0.00638977019116,"(1.2184696791468346e-07, 0.0, 0.0, 0.0, 1.2184696791468346e-07, 0.0, 0.0, 0.0, 1.2184696791468346e-07)",0.0,0.0,0.0,"(-1.0, 0.0, 0.0, 0.0, 8.999999999999999e-08, 0.0, 0.0, 0.0, 8.999999999999999e-08)"
1970/01/01/01:00:13.671000,148,13,670000000,base_link,0.000587980764249,-0.00128989709585,-0.697494368544,-0.716588960067,"(1.0, 0.0, 0.0, 0.0, 1.0, 0.0, 0.0, 0.0, 1.0)",0.000409684434999,0.00968464370817,8.13205042505e-05,"(1.2184696791468346e-07, 0.0, 0.0, 0.0, 1.2184696791468346e-07, 0.0, 0.0, 0.0, 1.2184696791468346e-07)",0.0,0.0,0.0,"(-1.0, 0.0, 0.0, 0.0, 8.999999999999999e-08, 0.0, 0.0, 0.0, 8.999999999999999e-08)"
1970/01/01/01:00:13.691000,149,13,690000000,base_link,0.000577731095209,-0.00130285898044,-0.697475911518,-0.716606827038,"(1.0, 0.0, 0.0, 0.0, 1.0, 0.0, 0.0, 0.0, 1.0)",-0.00276939291507,0.00119050208014,-0.00232826592401,"(1.2184696791468346e-07, 0.0, 0.0, 0.0, 1.2184696791468346e-07, 0.0, 0.0, 0.0, 1.2184696791468346e-07)",0.0,0.0,0.0,"(-1.0, 0.0, 0.0, 0.0, 8.999999999999999e-08, 0.0, 0.0, 0.0, 8.999999999999999e-08)"
1970/01/01/01:00:13.711000,150,13,711000000,base_link,0.000598170176467,-0.00145337294974,-0.697455066608,-0.716626913304,"(1.0, 0.0, 0.0, 0.0, 1.0, 0.0, 0.0, 0.0, 1.0)",0.0133452676237,0.0146543392912,-0.00378656154498,"(1.2184696791468346e-07, 0.0, 0.0, 0.0, 1.2184696791468346e-07, 0.0, 0.0, 0.0, 1.2184696791468346e-07)",0.0,0.0,0.0,"(-1.0, 0.0, 0.0, 0.0, 8.999999999999999e-08, 0.0, 0.0, 0.0, 8.999999999999999e-08)"
1970/01/01/01:00:13.731000,151,13,731000000,base_link,0.000632129505746,-0.0015323591073,-0.697471684979,-0.716610547814,"(1.0, 0.0, 0.0, 0.0, 1.0, 0.0, 0.0, 0.0, 1.0)",-0.00180109427311,-0.000226616044529,-0.00303406780586,"(1.2184696791468346e-07, 0.0, 0.0, 0.0, 1.2184696791468346e-07, 0.0, 0.0, 0.0, 1.2184696791468346e-07)",0.0,0.0,0.0,"(-1.0, 0.0, 0.0, 0.0, 8.999999999999999e-08, 0.0, 0.0, 0.0, 8.999999999999999e-08)"
1970/01/01/01:00:13.751000,152,13,751000000,base_link,0.000602922315954,-0.00159801821733,-0.697445943133,-0.716635446724,"(1.0, 0.0, 0.0, 0.0, 1.0, 0.0, 0.0, 0.0, 1.0)",0.0108497980982,0.000397921307012,-0.0012148503447,"(1.2184696791468346e-07, 0.0, 0.0, 0.0, 1.2184696791468346e-07, 0.0, 0.0, 0.0, 1.2184696791468346e-07)",0.0,0.0,0.0,"(-1.0, 0.0, 0.0, 0.0, 8.999999999999999e-08, 0.0, 0.0, 0.0, 8.999999999999999e-08)"
1970/01/01/01:00:13.771000,153,13,771000000,base_link,0.000620032166611,-0.00156870454912,-0.697471906908,-0.716610241591,"(1.0, 0.0, 0.0, 0.0, 1.0, 0.0, 0.0, 0.0, 1.0)",-0.00858547724783,-0.00296011194587,0.00864754803479,"(1.2184696791468346e-07, 0.0, 0.0, 0.0, 1.2184696791468346e-07, 0.0, 0.0, 0.0, 1.2184696791468346e-07)",0.0,0.0,0.0,"(-1.0, 0.0, 0.0, 0.0, 8.999999999999999e-08, 0.0, 0.0, 0.0, 8.999999999999999e-08)"
1970/01/01/01:00:13.791000,154,13,790000000,base_link,0.000667430043234,-0.00162245993211,-0.697537985264,-0.716545764815,"(1.0, 0.0, 0.0, 0.0, 1.0, 0.0, 0.0, 0.0, 1.0)",-0.000623121042736,0.00499584013596,0.00884944759309,"(1.2184696791468346e-07, 0.0, 0.0, 0.0, 1.2184696791468346e-07, 0.0, 0.0, 0.0, 1.2184696791468346e-07)",0.0,0.0,0.0,"(-1.0, 0.0, 0.0, 0.0, 8.999999999999999e-08, 0.0, 0.0, 0.0, 8.999999999999999e-08)"
1970/01/01/01:00:13.811000,155,13,811000000,base_link,0.000593784270044,-0.00165454825412,-0.697557258228,-0.716526997614,"(1.0, 0.0, 0.0, 0.0, 1.0, 0.0, 0.0, 0.0, 1.0)",0.00989776290953,-0.00322387181222,0.000743319513276,"(1.2184696791468346e-07, 0.0, 0.0, 0.0, 1.2184696791468346e-07, 0.0, 0.0, 0.0, 1.2184696791468346e-07)",0.0,0.0,0.0,"(-1.0, 0.0, 0.0, 0.0, 8.999999999999999e-08, 0.0, 0.0, 0.0, 8.999999999999999e-08)"
1970/01/01/01:00:13.831000,156,13,831000000,base_link,0.000546052717151,-0.00168323601693,-0.697563586841,-0.716520669001,"(1.0, 0.0, 0.0, 0.0, 1.0, 0.0, 0.0, 0.0, 1.0)",0.00237141316757,0.00394365284592,-0.000214464700548,"(1.2184696791468346e-07, 0.0, 0.0, 0.0, 1.2184696791468346e-07, 0.0, 0.0, 0.0, 1.2184696791468346e-07)",0.0,0.0,0.0,"(-1.0, 0.0, 0.0, 0.0, 8.999999999999999e-08, 0.0, 0.0, 0.0, 8.999999999999999e-08)"
1970/01/01/01:00:13.851000,157,13,851000000,base_link,0.000636668729562,-0.00173716706666,-0.697573731719,-0.716510777004,"(1.0, 0.0, 0.0, 0.0, 1.0, 0.0, 0.0, 0.0, 1.0)",0.00522438762709,0.00620054081082,0.000533117796294,"(1.2184696791468346e-07, 0.0, 0.0, 0.0, 1.2184696791468346e-07, 0.0, 0.0, 0.0, 1.2184696791468346e-07)",0.0,0.0,0.0,"(-1.0, 0.0, 0.0, 0.0, 8.999999999999999e-08, 0.0, 0.0, 0.0, 8.999999999999999e-08)"
1970/01/01/01:00:13.870000,158,13,871000000,base_link,0.000663404319498,-0.00171543378081,-0.69755443834,-0.716529480327,"(1.0, 0.0, 0.0, 0.0, 1.0, 0.0, 0.0, 0.0, 1.0)",-0.00336951273493,0.00118398701306,-0.00504845473915,"(1.2184696791468346e-07, 0.0, 0.0, 0.0, 1.2184696791468346e-07, 0.0, 0.0, 0.0, 1.2184696791468346e-07)",0.0,0.0,0.0,"(-1.0, 0.0, 0.0, 0.0, 8.999999999999999e-08, 0.0, 0.0, 0.0, 8.999999999999999e-08)"
1970/01/01/01:00:13.891000,159,13,890000000,base_link,0.000673669793606,-0.00166203051334,-0.697562975053,-0.716521280789,"(1.0, 0.0, 0.0, 0.0, 1.0, 0.0, 0.0, 0.0, 1.0)",-0.0018381215632,-0.00547573715448,0.00560171576217,"(1.2184696791468346e-07, 0.0, 0.0, 0.0, 1.2184696791468346e-07, 0.0, 0.0, 0.0, 1.2184696791468346e-07)",0.0,0.0,0.0,"(-1.0, 0.0, 0.0, 0.0, 8.999999999999999e-08, 0.0, 0.0, 0.0, 8.999999999999999e-08)"
1970/01/01/01:00:13.911000,160,13,911000000,base_link,0.000660411358186,-0.00168815970726,-0.697605492662,-0.716479943292,"(1.0, 0.0, 0.0, 0.0, 1.0, 0.0, 0.0, 0.0, 1.0)",0.00341981882229,0.00059770984808,0.00684763398021,"(1.2184696791468346e-07, 0.0, 0.0, 0.0, 1.2184696791468346e-07, 0.0, 0.0, 0.0, 1.2184696791468346e-07)",0.0,0.0,0.0,"(-1.0, 0.0, 0.0, 0.0, 8.999999999999999e-08, 0.0, 0.0, 0.0, 8.999999999999999e-08)"
1970/01/01/01:00:13.931000,161,13,931000000,base_link,0.000672768945878,-0.00161584345312,-0.697680448856,-0.71640709444,"(1.0, 0.0, 0.0, 0.0, 1.0, 0.0, 0.0, 0.0, 1.0)",-0.00331528275274,0.00023001030786,0.00619815476239,"(1.2184696791468346e-07, 0.0, 0.0, 0.0, 1.2184696791468346e-07, 0.0, 0.0, 0.0, 1.2184696791468346e-07)",0.0,0.0,0.0,"(-1.0, 0.0, 0.0, 0.0, 8.999999999999999e-08, 0.0, 0.0, 0.0, 8.999999999999999e-08)"
1970/01/01/01:00:13.951000,162,13,951000000,base_link,0.0007233422418,-0.00156015244319,-0.697709059981,-0.716379241958,"(1.0, 0.0, 0.0, 0.0, 1.0, 0.0, 0.0, 0.0, 1.0)",-0.00550627987832,-0.00256617181003,0.00369909731671,"(1.2184696791468346e-07, 0.0, 0.0, 0.0, 1.2184696791468346e-07, 0.0, 0.0, 0.0, 1.2184696791468346e-07)",0.0,0.0,0.0,"(-1.0, 0.0, 0.0, 0.0, 8.999999999999999e-08, 0.0, 0.0, 0.0, 8.999999999999999e-08)"
1970/01/01/01:00:13.971000,163,13,971000000,base_link,0.000691020259963,-0.00156089606341,-0.697779542024,-0.716310530083,"(1.0, 0.0, 0.0, 0.0, 1.0, 0.0, 0.0, 0.0, 1.0)",0.000571055919863,-0.00232778140344,0.0108890719712,"(1.2184696791468346e-07, 0.0, 0.0, 0.0, 1.2184696791468346e-07, 0.0, 0.0, 0.0, 1.2184696791468346e-07)",0.0,0.0,0.0,"(-1.0, 0.0, 0.0, 0.0, 8.999999999999999e-08, 0.0, 0.0, 0.0, 8.999999999999999e-08)"
1970/01/01/01:00:13.991000,164,13,991000000,base_link,0.000692379043078,-0.00156510214603,-0.697701932554,-0.716386200798,"(1.0, 0.0, 0.0, 0.0, 1.0, 0.0, 0.0, 0.0, 1.0)",0.000383167993277,-0.00544970016927,-0.0180482845753,"(1.2184696791468346e-07, 0.0, 0.0, 0.0, 1.2184696791468346e-07, 0.0, 0.0, 0.0, 1.2184696791468346e-07)",0.0,0.0,0.0,"(-1.0, 0.0, 0.0, 0.0, 8.999999999999999e-08, 0.0, 0.0, 0.0, 8.999999999999999e-08)"
1970/01/01/01:00:14.011000,165,14,11000000,base_link,0.000687298207563,-0.00161481040258,-0.697761440611,-0.716328125734,"(1.0, 0.0, 0.0, 0.0, 1.0, 0.0, 0.0, 0.0, 1.0)",0.00476507563144,0.00331010296941,0.0098660858348,"(1.2184696791468346e-07, 0.0, 0.0, 0.0, 1.2184696791468346e-07, 0.0, 0.0, 0.0, 1.2184696791468346e-07)",0.0,0.0,0.0,"(-1.0, 0.0, 0.0, 0.0, 8.999999999999999e-08, 0.0, 0.0, 0.0, 8.999999999999999e-08)"
1970/01/01/01:00:14.031000,166,14,31000000,base_link,0.000727613973069,-0.00170127169885,-0.697749453125,-0.716339523163,"(1.0, 0.0, 0.0, 0.0, 1.0, 0.0, 0.0, 0.0, 1.0)",-0.000647068140097,0.00195576483384,-0.00310641387478,"(1.2184696791468346e-07, 0.0, 0.0, 0.0, 1.2184696791468346e-07, 0.0, 0.0, 0.0, 1.2184696791468346e-07)",0.0,0.0,0.0,"(-1.0, 0.0, 0.0, 0.0, 8.999999999999999e-08, 0.0, 0.0, 0.0, 8.999999999999999e-08)"
1970/01/01/01:00:14.051000,167,14,51000000,base_link,0.000742653771383,-0.00182418429798,-0.697764290792,-0.716324769791,"(1.0, 0.0, 0.0, 0.0, 1.0, 0.0, 0.0, 0.0, 1.0)",0.0101075898856,0.0117086088285,0.00503652915359,"(1.2184696791468346e-07, 0.0, 0.0, 0.0, 1.2184696791468346e-07, 0.0, 0.0, 0.0, 1.2184696791468346e-07)",0.0,0.0,0.0,"(-1.0, 0.0, 0.0, 0.0, 8.999999999999999e-08, 0.0, 0.0, 0.0, 8.999999999999999e-08)"
1970/01/01/01:00:14.070000,168,14,70000000,base_link,0.000727058408459,-0.00178126831064,-0.697769299681,-0.716320013782,"(1.0, 0.0, 0.0, 0.0, 1.0, 0.0, 0.0, 0.0, 1.0)",-0.00471578398719,-0.00726125063375,0.00141097663436,"(1.2184696791468346e-07, 0.0, 0.0, 0.0, 1.2184696791468346e-07, 0.0, 0.0, 0.0, 1.2184696791468346e-07)",0.0,0.0,0.0,"(-1.0, 0.0, 0.0, 0.0, 8.999999999999999e-08, 0.0, 0.0, 0.0, 8.999999999999999e-08)"
1970/01/01/01:00:14.090000,169,14,91000000,base_link,0.000772530001236,-0.00185578928948,-0.697820734642,-0.71626967464,"(1.0, 0.0, 0.0, 0.0, 1.0, 0.0, 0.0, 0.0, 1.0)",0.00604124041274,0.013904388994,0.00779218878597,"(1.2184696791468346e-07, 0.0, 0.0, 0.0, 1.2184696791468346e-07, 0.0, 0.0, 0.0, 1.2184696791468346e-07)",0.0,0.0,0.0,"(-1.0, 0.0, 0.0, 0.0, 8.999999999999999e-08, 0.0, 0.0, 0.0, 8.999999999999999e-08)"
1970/01/01/01:00:14.111000,170,14,111000000,base_link,0.000802190763557,-0.00191957072448,-0.697855396473,-0.716235687158,"(1.0, 0.0, 0.0, 0.0, 1.0, 0.0, 0.0, 0.0, 1.0)",-0.00230217026547,0.00479054637253,-5.62641071156e-05,"(1.2184696791468346e-07, 0.0, 0.0, 0.0, 1.2184696791468346e-07, 0.0, 0.0, 0.0, 1.2184696791468346e-07)",0.0,0.0,0.0,"(-1.0, 0.0, 0.0, 0.0, 8.999999999999999e-08, 0.0, 0.0, 0.0, 8.999999999999999e-08)"
1970/01/01/01:00:14.131000,171,14,131000000,base_link,0.000876285581784,-0.00190411830688,-0.697850590415,-0.716240324629,"(1.0, 0.0, 0.0, 0.0, 1.0, 0.0, 0.0, 0.0, 1.0)",-0.00799374468625,-0.00371132837608,0.0024571090471,"(1.2184696791468346e-07, 0.0, 0.0, 0.0, 1.2184696791468346e-07, 0.0, 0.0, 0.0, 1.2184696791468346e-07)",0.0,0.0,0.0,"(-1.0, 0.0, 0.0, 0.0, 8.999999999999999e-08, 0.0, 0.0, 0.0, 8.999999999999999e-08)"
1970/01/01/01:00:14.151000,172,14,151000000,base_link,0.000925155470018,-0.00196019242507,-0.69777799181,-0.716310815891,"(1.0, 0.0, 0.0, 0.0, 1.0, 0.0, 0.0, 0.0, 1.0)",-0.00250079575926,0.00684491172433,-0.0128989554942,"(1.2184696791468346e-07, 0.0, 0.0, 0.0, 1.2184696791468346e-07, 0.0, 0.0, 0.0, 1.2184696791468346e-07)",0.0,0.0,0.0,"(-1.0, 0.0, 0.0, 0.0, 8.999999999999999e-08, 0.0, 0.0, 0.0, 8.999999999999999e-08)"
1970/01/01/01:00:14.172000,173,14,171000000,base_link,0.000941026721933,-0.0019760979213,-0.697790419204,-0.716298641379,"(1.0, 0.0, 0.0, 0.0, 1.0, 0.0, 0.0, 0.0, 1.0)",-0.00194973452017,-0.00174975662958,0.00248111900873,"(1.2184696791468346e-07, 0.0, 0.0, 0.0, 1.2184696791468346e-07, 0.0, 0.0, 0.0, 1.2184696791468346e-07)",0.0,0.0,0.0,"(-1.0, 0.0, 0.0, 0.0, 8.999999999999999e-08, 0.0, 0.0, 0.0, 8.999999999999999e-08)"
1970/01/01/01:00:14.191000,174,14,191000000,base_link,0.00090466876776,-0.00201831297033,-0.697805067209,-0.716284330548,"(1.0, 0.0, 0.0, 0.0, 1.0, 0.0, 0.0, 0.0, 1.0)",0.00531332567334,0.000894205411896,0.00161076372024,"(1.2184696791468346e-07, 0.0, 0.0, 0.0, 1.2184696791468346e-07, 0.0, 0.0, 0.0, 1.2184696791468346e-07)",0.0,0.0,0.0,"(-1.0, 0.0, 0.0, 0.0, 8.999999999999999e-08, 0.0, 0.0, 0.0, 8.999999999999999e-08)"
1970/01/01/01:00:14.211000,175,14,211000000,base_link,0.000907869170592,-0.00205075036209,-0.697776225594,-0.716312329227,"(1.0, 0.0, 0.0, 0.0, 1.0, 0.0, 0.0, 0.0, 1.0)",0.00248740334064,-0.000875185825862,0.0050599896349,"(1.2184696791468346e-07, 0.0, 0.0, 0.0, 1.2184696791468346e-07, 0.0, 0.0, 0.0, 1.2184696791468346e-07)",0.0,0.0,0.0,"(-1.0, 0.0, 0.0, 0.0, 8.999999999999999e-08, 0.0, 0.0, 0.0, 8.999999999999999e-08)"
1970/01/01/01:00:14.230000,176,14,231000000,base_link,0.00092420914156,-0.00208989342447,-0.697803945708,-0.716285199168,"(1.0, 0.0, 0.0, 0.0, 1.0, 0.0, 0.0, 0.0, 1.0)",0.0030864730943,0.00129719055258,0.00283498223871,"(1.2184696791468346e-07, 0.0, 0.0, 0.0, 1.2184696791468346e-07, 0.0, 0.0, 0.0, 1.2184696791468346e-07)",0.0,0.0,0.0,"(-1.0, 0.0, 0.0, 0.0, 8.999999999999999e-08, 0.0, 0.0, 0.0, 8.999999999999999e-08)"
1970/01/01/01:00:14.251000,177,14,251000000,base_link,0.000983775356647,-0.00212974536884,-0.697837379354,-0.716252439872,"(1.0, 0.0, 0.0, 0.0, 1.0, 0.0, 0.0, 0.0, 1.0)",-0.00397579371929,0.00196134462021,0.00134266645182,"(1.2184696791468346e-07, 0.0, 0.0, 0.0, 1.2184696791468346e-07, 0.0, 0.0, 0.0, 1.2184696791468346e-07)",0.0,0.0,0.0,"(-1.0, 0.0, 0.0, 0.0, 8.999999999999999e-08, 0.0, 0.0, 0.0, 8.999999999999999e-08)"
1970/01/01/01:00:14.271000,178,14,271000000,base_link,0.000994582072023,-0.00212142828098,-0.697803413604,-0.716285562685,"(1.0, 0.0, 0.0, 0.0, 1.0, 0.0, 0.0, 0.0, 1.0)",-0.000954991090111,0.00085275049787,-0.0035579779651,"(1.2184696791468346e-07, 0.0, 0.0, 0.0, 1.2184696791468346e-07, 0.0, 0.0, 0.0, 1.2184696791468346e-07)",0.0,0.0,0.0,"(-1.0, 0.0, 0.0, 0.0, 8.999999999999999e-08, 0.0, 0.0, 0.0, 8.999999999999999e-08)"
1970/01/01/01:00:14.291000,179,14,291000000,base_link,0.00102071410592,-0.00212702294585,-0.697776584501,-0.716311633145,"(1.0, 0.0, 0.0, 0.0, 1.0, 0.0, 0.0, 0.0, 1.0)",-0.00174692785367,0.00290608522482,-0.00535493949428,"(1.2184696791468346e-07, 0.0, 0.0, 0.0, 1.2184696791468346e-07, 0.0, 0.0, 0.0, 1.2184696791468346e-07)",0.0,0.0,0.0,"(-1.0, 0.0, 0.0, 0.0, 8.999999999999999e-08, 0.0, 0.0, 0.0, 8.999999999999999e-08)"
1970/01/01/01:00:14.311000,180,14,311000000,base_link,0.000978967117399,-0.00219996815116,-0.697737339199,-0.716349698335,"(1.0, 0.0, 0.0, 0.0, 1.0, 0.0, 0.0, 0.0, 1.0)",0.00637063570321,0.00104705244303,-0.00688779773191,"(1.2184696791468346e-07, 0.0, 0.0, 0.0, 1.2184696791468346e-07, 0.0, 0.0, 0.0, 1.2184696791468346e-07)",0.0,0.0,0.0,"(-1.0, 0.0, 0.0, 0.0, 8.999999999999999e-08, 0.0, 0.0, 0.0, 8.999999999999999e-08)"
1970/01/01/01:00:14.331000,181,14,331000000,base_link,0.000989042766053,-0.00223218060881,-0.69771073466,-0.716375459937,"(1.0, 0.0, 0.0, 0.0, 1.0, 0.0, 0.0, 0.0, 1.0)",0.00128794205375,0.00176447175909,-0.00276229018345,"(1.2184696791468346e-07, 0.0, 0.0, 0.0, 1.2184696791468346e-07, 0.0, 0.0, 0.0, 1.2184696791468346e-07)",0.0,0.0,0.0,"(-1.0, 0.0, 0.0, 0.0, 8.999999999999999e-08, 0.0, 0.0, 0.0, 8.999999999999999e-08)"
1970/01/01/01:00:14.351000,182,14,350000000,base_link,0.00108793083835,-0.00225236298119,-0.697725011246,-0.716361436232,"(1.0, 0.0, 0.0, 0.0, 1.0, 0.0, 0.0, 0.0, 1.0)",-0.0080518964678,0.00999912433326,0.00359613355249,"(1.2184696791468346e-07, 0.0, 0.0, 0.0, 1.2184696791468346e-07, 0.0, 0.0, 0.0, 1.2184696791468346e-07)",0.0,0.0,0.0,"(-1.0, 0.0, 0.0, 0.0, 8.999999999999999e-08, 0.0, 0.0, 0.0, 8.999999999999999e-08)"
1970/01/01/01:00:14.371000,183,14,370000000,base_link,0.00102487713618,-0.00224415196015,-0.697685227914,-0.716400292334,"(1.0, 0.0, 0.0, 0.0, 1.0, 0.0, 0.0, 0.0, 1.0)",0.00236263638362,-0.0111668929458,-0.0075338636525,"(1.2184696791468346e-07, 0.0, 0.0, 0.0, 1.2184696791468346e-07, 0.0, 0.0, 0.0, 1.2184696791468346e-07)",0.0,0.0,0.0,"(-1.0, 0.0, 0.0, 0.0, 8.999999999999999e-08, 0.0, 0.0, 0.0, 8.999999999999999e-08)"
1970/01/01/01:00:14.391000,184,14,390000000,base_link,0.000993784945055,-0.00232328332677,-0.697643486729,-0.716440684819,"(1.0, 0.0, 0.0, 0.0, 1.0, 0.0, 0.0, 0.0, 1.0)",0.00985758099705,0.00544553808868,-0.00969696324319,"(1.2184696791468346e-07, 0.0, 0.0, 0.0, 1.2184696791468346e-07, 0.0, 0.0, 0.0, 1.2184696791468346e-07)",0.0,0.0,0.0,"(-1.0, 0.0, 0.0, 0.0, 8.999999999999999e-08, 0.0, 0.0, 0.0, 8.999999999999999e-08)"
1970/01/01/01:00:14.411000,185,14,411000000,base_link,0.00100334260729,-0.00233884353989,-0.697609061315,-0.716474183003,"(1.0, 0.0, 0.0, 0.0, 1.0, 0.0, 0.0, 0.0, 1.0)",-0.00148732564412,-0.000412341498304,-0.00803846213967,"(1.2184696791468346e-07, 0.0, 0.0, 0.0, 1.2184696791468346e-07, 0.0, 0.0, 0.0, 1.2184696791468346e-07)",0.0,0.0,0.0,"(-1.0, 0.0, 0.0, 0.0, 8.999999999999999e-08, 0.0, 0.0, 0.0, 8.999999999999999e-08)"
1970/01/01/01:00:14.431000,186,14,431000000,base_link,0.000979262556929,-0.00230793611165,-0.697640005662,-0.716444165886,"(1.0, 0.0, 0.0, 0.0, 1.0, 0.0, 0.0, 0.0, 1.0)",-0.000344065745594,-0.00733414338902,0.00666296854615,"(1.2184696791468346e-07, 0.0, 0.0, 0.0, 1.2184696791468346e-07, 0.0, 0.0, 0.0, 1.2184696791468346e-07)",0.0,0.0,0.0,"(-1.0, 0.0, 0.0, 0.0, 8.999999999999999e-08, 0.0, 0.0, 0.0, 8.999999999999999e-08)"
1970/01/01/01:00:14.451000,187,14,451000000,base_link,0.000981483086692,-0.00232933164649,-0.697556529878,-0.716525365741,"(1.0, 0.0, 0.0, 0.0, 1.0, 0.0, 0.0, 0.0, 1.0)",-0.000459164235508,0.00405408581719,-0.016332430765,"(1.2184696791468346e-07, 0.0, 0.0, 0.0, 1.2184696791468346e-07, 0.0, 0.0, 0.0, 1.2184696791468346e-07)",0.0,0.0,0.0,"(-1.0, 0.0, 0.0, 0.0, 8.999999999999999e-08, 0.0, 0.0, 0.0, 8.999999999999999e-08)"
1970/01/01/01:00:14.471000,188,14,471000000,base_link,0.00095171691609,-0.002367260147,-0.697550041239,-0.716531517205,"(1.0, 0.0, 0.0, 0.0, 1.0, 0.0, 0.0, 0.0, 1.0)",0.0073359683156,-0.00401638122275,0.000812951184344,"(1.2184696791468346e-07, 0.0, 0.0, 0.0, 1.2184696791468346e-07, 0.0, 0.0, 0.0, 1.2184696791468346e-07)",0.0,0.0,0.0,"(-1.0, 0.0, 0.0, 0.0, 8.999999999999999e-08, 0.0, 0.0, 0.0, 8.999999999999999e-08)"
1970/01/01/01:00:14.491000,189,14,490000000,base_link,0.000994233537342,-0.00241349326418,-0.697592032671,-0.716490453004,"(1.0, 0.0, 0.0, 0.0, 1.0, 0.0, 0.0, 0.0, 1.0)",-0.00804157741368,0.0111398342997,0.00421977741644,"(1.2184696791468346e-07, 0.0, 0.0, 0.0, 1.2184696791468346e-07, 0.0, 0.0, 0.0, 1.2184696791468346e-07)",0.0,0.0,0.0,"(-1.0, 0.0, 0.0, 0.0, 8.999999999999999e-08, 0.0, 0.0, 0.0, 8.999999999999999e-08)"
1970/01/01/01:00:14.511000,190,14,510000000,base_link,0.00108369866091,-0.00240997445508,-0.697546130143,-0.716535091126,"(1.0, 0.0, 0.0, 0.0, 1.0, 0.0, 0.0, 0.0, 1.0)",4.43762401119e-05,0.010157818906,-0.00456309085712,"(1.2184696791468346e-07, 0.0, 0.0, 0.0, 1.2184696791468346e-07, 0.0, 0.0, 0.0, 1.2184696791468346e-07)",0.0,0.0,0.0,"(-1.0, 0.0, 0.0, 0.0, 8.999999999999999e-08, 0.0, 0.0, 0.0, 8.999999999999999e-08)"
1970/01/01/01:00:14.531000,191,14,531000000,base_link,0.00112587728419,-0.00248745402744,-0.697571547327,-0.716510011117,"(1.0, 0.0, 0.0, 0.0, 1.0, 0.0, 0.0, 0.0, 1.0)",0.004429445602,-0.0016891094856,0.00637860829011,"(1.2184696791468346e-07, 0.0, 0.0, 0.0, 1.2184696791468346e-07, 0.0, 0.0, 0.0, 1.2184696791468346e-07)",0.0,0.0,0.0,"(-1.0, 0.0, 0.0, 0.0, 8.999999999999999e-08, 0.0, 0.0, 0.0, 8.999999999999999e-08)"
1970/01/01/01:00:14.551000,192,14,551000000,base_link,0.00108240581456,-0.00246385636093,-0.697624462695,-0.716458697329,"(1.0, 0.0, 0.0, 0.0, 1.0, 0.0, 0.0, 0.0, 1.0)",-0.000606620858889,-0.0040278872475,0.00580071099102,"(1.2184696791468346e-07, 0.0, 0.0, 0.0, 1.2184696791468346e-07, 0.0, 0.0, 0.0, 1.2184696791468346e-07)",0.0,0.0,0.0,"(-1.0, 0.0, 0.0, 0.0, 8.999999999999999e-08, 0.0, 0.0, 0.0, 8.999999999999999e-08)"
1970/01/01/01:00:14.571000,193,14,571000000,base_link,0.00109451768283,-0.00253194533556,-0.697699304303,-0.716385457301,"(1.0, 0.0, 0.0, 0.0, 1.0, 0.0, 0.0, 0.0, 1.0)",0.00400015944615,0.00180109369103,0.0077532408759,"(1.2184696791468346e-07, 0.0, 0.0, 0.0, 1.2184696791468346e-07, 0.0, 0.0, 0.0, 1.2184696791468346e-07)",0.0,0.0,0.0,"(-1.0, 0.0, 0.0, 0.0, 8.999999999999999e-08, 0.0, 0.0, 0.0, 8.999999999999999e-08)"
1970/01/01/01:00:14.591000,194,14,591000000,base_link,0.00109008329107,-0.00248297209699,-0.697712995443,-0.716372271923,"(1.0, 0.0, 0.0, 0.0, 1.0, 0.0, 0.0, 0.0, 1.0)",-0.0050113084726,-0.00950483139604,0.00099578674417,"(1.2184696791468346e-07, 0.0, 0.0, 0.0, 1.2184696791468346e-07, 0.0, 0.0, 0.0, 1.2184696791468346e-07)",0.0,0.0,0.0,"(-1.0, 0.0, 0.0, 0.0, 8.999999999999999e-08, 0.0, 0.0, 0.0, 8.999999999999999e-08)"
1970/01/01/01:00:14.611000,195,14,611000000,base_link,0.00106422982151,-0.00245800996742,-0.697718110358,-0.716367494183,"(1.0, 0.0, 0.0, 0.0, 1.0, 0.0, 0.0, 0.0, 1.0)",-0.00199726899154,-0.00624101329595,-0.00210434990004,"(1.2184696791468346e-07, 0.0, 0.0, 0.0, 1.2184696791468346e-07, 0.0, 0.0, 0.0, 1.2184696791468346e-07)",0.0,0.0,0.0,"(-1.0, 0.0, 0.0, 0.0, 8.999999999999999e-08, 0.0, 0.0, 0.0, 8.999999999999999e-08)"
1970/01/01/01:00:14.631000,196,14,630000000,base_link,0.00106929048909,-0.0023904916216,-0.697705914772,-0.716379605475,"(1.0, 0.0, 0.0, 0.0, 1.0, 0.0, 0.0, 0.0, 1.0)",-0.00303253019229,-0.00727771176025,-0.00111188436858,"(1.2184696791468346e-07, 0.0, 0.0, 0.0, 1.2184696791468346e-07, 0.0, 0.0, 0.0, 1.2184696791468346e-07)",0.0,0.0,0.0,"(-1.0, 0.0, 0.0, 0.0, 8.999999999999999e-08, 0.0, 0.0, 0.0, 8.999999999999999e-08)"
1970/01/01/01:00:14.651000,197,14,650000000,base_link,0.00108407773559,-0.00241351800076,-0.697748647726,-0.716337799752,"(1.0, 0.0, 0.0, 0.0, 1.0, 0.0, 0.0, 0.0, 1.0)",-0.00139516708441,0.000575071084313,0.000377314630896,"(1.2184696791468346e-07, 0.0, 0.0, 0.0, 1.2184696791468346e-07, 0.0, 0.0, 0.0, 1.2184696791468346e-07)",0.0,0.0,0.0,"(-1.0, 0.0, 0.0, 0.0, 8.999999999999999e-08, 0.0, 0.0, 0.0, 8.999999999999999e-08)"
1970/01/01/01:00:14.671000,198,14,671000000,base_link,0.00101565952986,-0.0024980412417,-0.697726911147,-0.716358861981,"(1.0, 0.0, 0.0, 0.0, 1.0, 0.0, 0.0, 0.0, 1.0)",0.0124289644882,0.00335988681763,-0.0030745442491,"(1.2184696791468346e-07, 0.0, 0.0, 0.0, 1.2184696791468346e-07, 0.0, 0.0, 0.0, 1.2184696791468346e-07)",0.0,0.0,0.0,"(-1.0, 0.0, 0.0, 0.0, 8.999999999999999e-08, 0.0, 0.0, 0.0, 8.999999999999999e-08)"
1970/01/01/01:00:14.691000,199,14,690000000,base_link,0.00103725764946,-0.00250729329813,-0.697714725439,-0.716370626221,"(1.0, 0.0, 0.0, 0.0, 1.0, 0.0, 0.0, 0.0, 1.0)",-0.00745706260204,0.00046233512694,-0.00282083265483,"(1.2184696791468346e-07, 0.0, 0.0, 0.0, 1.2184696791468346e-07, 0.0, 0.0, 0.0, 1.2184696791468346e-07)",0.0,0.0,0.0,"(-1.0, 0.0, 0.0, 0.0, 8.999999999999999e-08, 0.0, 0.0, 0.0, 8.999999999999999e-08)"
1970/01/01/01:00:14.711000,200,14,711000000,base_link,0.00107284547698,-0.00248880260311,-0.697672391564,-0.716411864278,"(1.0, 0.0, 0.0, 0.0, 1.0, 0.0, 0.0, 0.0, 1.0)",0.00205920962617,0.00101905479096,-0.00891785509884,"(1.2184696791468346e-07, 0.0, 0.0, 0.0, 1.2184696791468346e-07, 0.0, 0.0, 0.0, 1.2184696791468346e-07)",0.0,0.0,0.0,"(-1.0, 0.0, 0.0, 0.0, 8.999999999999999e-08, 0.0, 0.0, 0.0, 8.999999999999999e-08)"
1970/01/01/01:00:14.731000,201,14,731000000,base_link,0.00102004025025,-0.00257529797906,-0.697673966803,-0.716410204745,"(1.0, 0.0, 0.0, 0.0, 1.0, 0.0, 0.0, 0.0, 1.0)",0.0101544605568,-0.00478623108938,0.00112433952745,"(1.2184696791468346e-07, 0.0, 0.0, 0.0, 1.2184696791468346e-07, 0.0, 0.0, 0.0, 1.2184696791468346e-07)",0.0,0.0,0.0,"(-1.0, 0.0, 0.0, 0.0, 8.999999999999999e-08, 0.0, 0.0, 0.0, 8.999999999999999e-08)"
1970/01/01/01:00:14.751000,202,14,751000000,base_link,0.00106473665382,-0.0025550803334,-0.697661160088,-0.716422505698,"(1.0, 0.0, 0.0, 0.0, 1.0, 0.0, 0.0, 0.0, 1.0)",-0.00925483554602,0.00219937111251,-0.0103486934677,"(1.2184696791468346e-07, 0.0, 0.0, 0.0, 1.2184696791468346e-07, 0.0, 0.0, 0.0, 1.2184696791468346e-07)",0.0,0.0,0.0,"(-1.0, 0.0, 0.0, 0.0, 8.999999999999999e-08, 0.0, 0.0, 0.0, 8.999999999999999e-08)"
1970/01/01/01:00:14.771000,203,14,771000000,base_link,0.00111779484397,-0.00264052788271,-0.697576598363,-0.716504622906,"(1.0, 0.0, 0.0, 0.0, 1.0, 0.0, 0.0, 0.0, 1.0)",0.00338188186288,0.00817164685577,-0.0152561031282,"(1.2184696791468346e-07, 0.0, 0.0, 0.0, 1.2184696791468346e-07, 0.0, 0.0, 0.0, 1.2184696791468346e-07)",0.0,0.0,0.0,"(-1.0, 0.0, 0.0, 0.0, 8.999999999999999e-08, 0.0, 0.0, 0.0, 8.999999999999999e-08)"
1970/01/01/01:00:14.791000,204,14,791000000,base_link,0.00104804394995,-0.00270672296566,-0.697628842016,-0.716453559365,"(1.0, 0.0, 0.0, 0.0, 1.0, 0.0, 0.0, 0.0, 1.0)",0.00351186888292,0.000365896004951,0.00826575234532,"(1.2184696791468346e-07, 0.0, 0.0, 0.0, 1.2184696791468346e-07, 0.0, 0.0, 0.0, 1.2184696791468346e-07)",0.0,0.0,0.0,"(-1.0, 0.0, 0.0, 0.0, 8.999999999999999e-08, 0.0, 0.0, 0.0, 8.999999999999999e-08)"
1970/01/01/01:00:14.811000,205,14,811000000,base_link,0.00102625016032,-0.00271144365965,-0.697631723807,-0.716450677574,"(1.0, 0.0, 0.0, 0.0, 1.0, 0.0, 0.0, 0.0, 1.0)",-0.00253615155816,-0.00634098891169,-0.00484216213226,"(1.2184696791468346e-07, 0.0, 0.0, 0.0, 1.2184696791468346e-07, 0.0, 0.0, 0.0, 1.2184696791468346e-07)",0.0,0.0,0.0,"(-1.0, 0.0, 0.0, 0.0, 8.999999999999999e-08, 0.0, 0.0, 0.0, 8.999999999999999e-08)"
1970/01/01/01:00:14.831000,206,14,831000000,base_link,0.00105310609927,-0.00278407403952,-0.697608459405,-0.716473014745,"(1.0, 0.0, 0.0, 0.0, 1.0, 0.0, 0.0, 0.0, 1.0)",0.00372486002743,0.00485125929117,-0.00443382607773,"(1.2184696791468346e-07, 0.0, 0.0, 0.0, 1.2184696791468346e-07, 0.0, 0.0, 0.0, 1.2184696791468346e-07)",0.0,0.0,0.0,"(-1.0, 0.0, 0.0, 0.0, 8.999999999999999e-08, 0.0, 0.0, 0.0, 8.999999999999999e-08)"
1970/01/01/01:00:14.851000,207,14,850000000,base_link,0.00112518601825,-0.00283672014544,-0.697658981622,-0.716423504052,"(1.0, 0.0, 0.0, 0.0, 1.0, 0.0, 0.0, 0.0, 1.0)",-0.00253202952445,0.0093715172261,0.00668005505577,"(1.2184696791468346e-07, 0.0, 0.0, 0.0, 1.2184696791468346e-07, 0.0, 0.0, 0.0, 1.2184696791468346e-07)",0.0,0.0,0.0,"(-1.0, 0.0, 0.0, 0.0, 8.999999999999999e-08, 0.0, 0.0, 0.0, 8.999999999999999e-08)"
1970/01/01/01:00:14.871000,208,14,871000000,base_link,0.00110369482983,-0.00289904669099,-0.697674201245,-0.716408537311,"(1.0, 0.0, 0.0, 0.0, 1.0, 0.0, 0.0, 0.0, 1.0)",0.0144379083067,-0.000152953201905,-0.00225958204828,"(1.2184696791468346e-07, 0.0, 0.0, 0.0, 1.2184696791468346e-07, 0.0, 0.0, 0.0, 1.2184696791468346e-07)",0.0,0.0,0.0,"(-1.0, 0.0, 0.0, 0.0, 8.999999999999999e-08, 0.0, 0.0, 0.0, 8.999999999999999e-08)"
1970/01/01/01:00:14.891000,209,14,890000000,base_link,0.00103365606954,-0.00295550626352,-0.697699082373,-0.716384246238,"(1.0, 0.0, 0.0, 0.0, 1.0, 0.0, 0.0, 0.0, 1.0)",0.00206879433244,-0.00350850773975,0.00727785285562,"(1.2184696791468346e-07, 0.0, 0.0, 0.0, 1.2184696791468346e-07, 0.0, 0.0, 0.0, 1.2184696791468346e-07)",0.0,0.0,0.0,"(-1.0, 0.0, 0.0, 0.0, 8.999999999999999e-08, 0.0, 0.0, 0.0, 8.999999999999999e-08)"
1970/01/01/01:00:14.911000,210,14,911000000,base_link,0.0010026239706,-0.00287025981723,-0.697723424812,-0.716360915323,"(1.0, 0.0, 0.0, 0.0, 1.0, 0.0, 0.0, 0.0, 1.0)",-0.00391853507608,-0.0113190012053,0.00404001912102,"(1.2184696791468346e-07, 0.0, 0.0, 0.0, 1.2184696791468346e-07, 0.0, 0.0, 0.0, 1.2184696791468346e-07)",0.0,0.0,0.0,"(-1.0, 0.0, 0.0, 0.0, 8.999999999999999e-08, 0.0, 0.0, 0.0, 8.999999999999999e-08)"
1970/01/01/01:00:14.931000,211,14,931000000,base_link,0.00102704996263,-0.00298896814474,-0.697716542364,-0.716367123422,"(1.0, 0.0, 0.0, 0.0, 1.0, 0.0, 0.0, 0.0, 1.0)",0.00756782665849,0.0123165566474,0.00279982807115,"(1.2184696791468346e-07, 0.0, 0.0, 0.0, 1.2184696791468346e-07, 0.0, 0.0, 0.0, 1.2184696791468346e-07)",0.0,0.0,0.0,"(-1.0, 0.0, 0.0, 0.0, 8.999999999999999e-08, 0.0, 0.0, 0.0, 8.999999999999999e-08)"
1970/01/01/01:00:14.951000,212,14,950000000,base_link,0.000950381881736,-0.00303280975755,-0.697757534784,-0.716326973939,"(1.0, 0.0, 0.0, 0.0, 1.0, 0.0, 0.0, 0.0, 1.0)",0.0146328117698,-0.01041330304,-0.000482340808958,"(1.2184696791468346e-07, 0.0, 0.0, 0.0, 1.2184696791468346e-07, 0.0, 0.0, 0.0, 1.2184696791468346e-07)",0.0,0.0,0.0,"(-1.0, 0.0, 0.0, 0.0, 8.999999999999999e-08, 0.0, 0.0, 0.0, 8.999999999999999e-08)"
1970/01/01/01:00:14.971000,213,14,971000000,base_link,0.000881137902355,-0.00309594343171,-0.697824469247,-0.716261641056,"(1.0, 0.0, 0.0, 0.0, 1.0, 0.0, 0.0, 0.0, 1.0)",0.00323257292621,-0.00131266587414,0.00881201587617,"(1.2184696791468346e-07, 0.0, 0.0, 0.0, 1.2184696791468346e-07, 0.0, 0.0, 0.0, 1.2184696791468346e-07)",0.0,0.0,0.0,"(-1.0, 0.0, 0.0, 0.0, 8.999999999999999e-08, 0.0, 0.0, 0.0, 8.999999999999999e-08)"
1970/01/01/01:00:14.991000,214,14,991000000,base_link,0.000832346833667,-0.00307154748578,-0.697773476171,-0.716311454021,"(1.0, 0.0, 0.0, 0.0, 1.0, 0.0, 0.0, 0.0, 1.0)",-0.00307593052275,-0.00773259112611,-0.0134629514068,"(1.2184696791468346e-07, 0.0, 0.0, 0.0, 1.2184696791468346e-07, 0.0, 0.0, 0.0, 1.2184696791468346e-07)",0.0,0.0,0.0,"(-1.0, 0.0, 0.0, 0.0, 8.999999999999999e-08, 0.0, 0.0, 0.0, 8.999999999999999e-08)"
1970/01/01/01:00:15.011000,215,15,11000000,base_link,0.000971579359313,-0.00311442754128,-0.697778606232,-0.716306155372,"(1.0, 0.0, 0.0, 0.0, 1.0, 0.0, 0.0, 0.0, 1.0)",-0.00693711126223,0.0178162138909,0.00181841477752,"(1.2184696791468346e-07, 0.0, 0.0, 0.0, 1.2184696791468346e-07, 0.0, 0.0, 0.0, 1.2184696791468346e-07)",0.0,0.0,0.0,"(-1.0, 0.0, 0.0, 0.0, 8.999999999999999e-08, 0.0, 0.0, 0.0, 8.999999999999999e-08)"
1970/01/01/01:00:15.031000,216,15,31000000,base_link,0.00100054371082,-0.00326490965348,-0.697808425128,-0.716276252183,"(1.0, 0.0, 0.0, 0.0, 1.0, 0.0, 0.0, 0.0, 1.0)",0.011704354547,0.011593144387,-0.00111407134682,"(1.2184696791468346e-07, 0.0, 0.0, 0.0, 1.2184696791468346e-07, 0.0, 0.0, 0.0, 1.2184696791468346e-07)",0.0,0.0,0.0,"(-1.0, 0.0, 0.0, 0.0, 8.999999999999999e-08, 0.0, 0.0, 0.0, 8.999999999999999e-08)"
1970/01/01/01:00:15.051000,217,15,51000000,base_link,0.000961359324776,-0.00325185664279,-0.69783940833,-0.716246280505,"(1.0, 0.0, 0.0, 0.0, 1.0, 0.0, 0.0, 0.0, 1.0)",0.00320641906001,-0.00675543956459,0.00496946554631,"(1.2184696791468346e-07, 0.0, 0.0, 0.0, 1.2184696791468346e-07, 0.0, 0.0, 0.0, 1.2184696791468346e-07)",0.0,0.0,0.0,"(-1.0, 0.0, 0.0, 0.0, 8.999999999999999e-08, 0.0, 0.0, 0.0, 8.999999999999999e-08)"
1970/01/01/01:00:15.071000,218,15,71000000,base_link,0.000983286963576,-0.00323126222734,-0.697825078401,-0.716260357553,"(1.0, 0.0, 0.0, 0.0, 1.0, 0.0, 0.0, 0.0, 1.0)",-0.00644699716941,-0.0101289758459,-0.00211637187749,"(1.2184696791468346e-07, 0.0, 0.0, 0.0, 1.2184696791468346e-07, 0.0, 0.0, 0.0, 1.2184696791468346e-07)",0.0,0.0,0.0,"(-1.0, 0.0, 0.0, 0.0, 8.999999999999999e-08, 0.0, 0.0, 0.0, 8.999999999999999e-08)"
1970/01/01/01:00:15.091000,219,15,91000000,base_link,0.000948346156026,-0.00320254351294,-0.69784323118,-0.716242710535,"(1.0, 0.0, 0.0, 0.0, 1.0, 0.0, 0.0, 0.0, 1.0)",0.00256819603965,-0.00433352589607,0.00431691668928,"(1.2184696791468346e-07, 0.0, 0.0, 0.0, 1.2184696791468346e-07, 0.0, 0.0, 0.0, 1.2184696791468346e-07)",0.0,0.0,0.0,"(-1.0, 0.0, 0.0, 0.0, 8.999999999999999e-08, 0.0, 0.0, 0.0, 8.999999999999999e-08)"
1970/01/01/01:00:15.111000,220,15,110000000,base_link,0.000959550303012,-0.0032466656657,-0.697858245337,-0.716228033554,"(1.0, 0.0, 0.0, 0.0, 1.0, 0.0, 0.0, 0.0, 1.0)",0.00536135816947,0.00218635331839,-0.000656447780784,"(1.2184696791468346e-07, 0.0, 0.0, 0.0, 1.2184696791468346e-07, 0.0, 0.0, 0.0, 1.2184696791468346e-07)",0.0,0.0,0.0,"(-1.0, 0.0, 0.0, 0.0, 8.999999999999999e-08, 0.0, 0.0, 0.0, 8.999999999999999e-08)"
1970/01/01/01:00:15.131000,221,15,131000000,base_link,0.000902170085261,-0.00332209494206,-0.697851310863,-0.716234377972,"(1.0, 0.0, 0.0, 0.0, 1.0, 0.0, 0.0, 0.0, 1.0)",0.00735753914341,-0.000350366346538,0.000679417862557,"(1.2184696791468346e-07, 0.0, 0.0, 0.0, 1.2184696791468346e-07, 0.0, 0.0, 0.0, 1.2184696791468346e-07)",0.0,0.0,0.0,"(-1.0, 0.0, 0.0, 0.0, 8.999999999999999e-08, 0.0, 0.0, 0.0, 8.999999999999999e-08)"
1970/01/01/01:00:15.151000,222,15,151000000,base_link,0.000925101922118,-0.00329799122525,-0.69784566582,-0.716240023015,"(1.0, 0.0, 0.0, 0.0, 1.0, 0.0, 0.0, 0.0, 1.0)",-0.00283619621769,-0.00281744380482,-0.00198842422105,"(1.2184696791468346e-07, 0.0, 0.0, 0.0, 1.2184696791468346e-07, 0.0, 0.0, 0.0, 1.2184696791468346e-07)",0.0,0.0,0.0,"(-1.0, 0.0, 0.0, 0.0, 8.999999999999999e-08, 0.0, 0.0, 0.0, 8.999999999999999e-08)"
1970/01/01/01:00:15.171000,223,15,170000000,base_link,0.00104161301588,-0.00330402077645,-0.697809601288,-0.716274991729,"(1.0, 0.0, 0.0, 0.0, 1.0, 0.0, 0.0, 0.0, 1.0)",-0.00954389106482,0.00531511753798,-0.00187663990073,"(1.2184696791468346e-07, 0.0, 0.0, 0.0, 1.2184696791468346e-07, 0.0, 0.0, 0.0, 1.2184696791468346e-07)",0.0,0.0,0.0,"(-1.0, 0.0, 0.0, 0.0, 8.999999999999999e-08, 0.0, 0.0, 0.0, 8.999999999999999e-08)"
1970/01/01/01:00:15.191000,224,15,191000000,base_link,0.00106623624198,-0.0033343748215,-0.697896681945,-0.716190018414,"(1.0, 0.0, 0.0, 0.0, 1.0, 0.0, 0.0, 0.0, 1.0)",0.00207272986881,0.00506252236664,0.00738358683884,"(1.2184696791468346e-07, 0.0, 0.0, 0.0, 1.2184696791468346e-07, 0.0, 0.0, 0.0, 1.2184696791468346e-07)",0.0,0.0,0.0,"(-1.0, 0.0, 0.0, 0.0, 8.999999999999999e-08, 0.0, 0.0, 0.0, 8.999999999999999e-08)"
1970/01/01/01:00:15.211000,225,15,211000000,base_link,0.00110774405537,-0.00331337671827,-0.697889631568,-0.71619681591,"(1.0, 0.0, 0.0, 0.0, 1.0, 0.0, 0.0, 0.0, 1.0)",-0.00413042819127,-0.0055265086703,-0.00266352109611,"(1.2184696791468346e-07, 0.0, 0.0, 0.0, 1.2184696791468346e-07, 0.0, 0.0, 0.0, 1.2184696791468346e-07)",0.0,0.0,0.0,"(-1.0, 0.0, 0.0, 0.0, 8.999999999999999e-08, 0.0, 0.0, 0.0, 8.999999999999999e-08)"
1970/01/01/01:00:15.231000,226,15,231000000,base_link,0.0010289241803,-0.00332894767389,-0.697845482086,-0.716240038162,"(1.0, 0.0, 0.0, 0.0, 1.0, 0.0, 0.0, 0.0, 1.0)",0.00733896065503,-0.00954759586602,-0.0066596576944,"(1.2184696791468346e-07, 0.0, 0.0, 0.0, 1.2184696791468346e-07, 0.0, 0.0, 0.0, 1.2184696791468346e-07)",0.0,0.0,0.0,"(-1.0, 0.0, 0.0, 0.0, 8.999999999999999e-08, 0.0, 0.0, 0.0, 8.999999999999999e-08)"
1970/01/01/01:00:15.251000,227,15,251000000,base_link,0.000989179290561,-0.00329231292523,-0.697849904871,-0.716235868258,"(1.0, 0.0, 0.0, 0.0, 1.0, 0.0, 0.0, 0.0, 1.0)",-0.00181752303615,-0.00416621845216,0.0049056224525,"(1.2184696791468346e-07, 0.0, 0.0, 0.0, 1.2184696791468346e-07, 0.0, 0.0, 0.0, 1.2184696791468346e-07)",0.0,0.0,0.0,"(-1.0, 0.0, 0.0, 0.0, 8.999999999999999e-08, 0.0, 0.0, 0.0, 8.999999999999999e-08)"
1970/01/01/01:00:15.271000,228,15,271000000,base_link,0.00101410462396,-0.00331675834432,-0.697863310203,-0.716222631513,"(1.0, 0.0, 0.0, 0.0, 1.0, 0.0, 0.0, 0.0, 1.0)",-0.00422599539161,0.0103507898748,-0.00160815613344,"(1.2184696791468346e-07, 0.0, 0.0, 0.0, 1.2184696791468346e-07, 0.0, 0.0, 0.0, 1.2184696791468346e-07)",0.0,0.0,0.0,"(-1.0, 0.0, 0.0, 0.0, 8.999999999999999e-08, 0.0, 0.0, 0.0, 8.999999999999999e-08)"
1970/01/01/01:00:15.289000,229,15,289000000,base_link,0.0010779399773,-0.00341456076483,-0.697901218659,-0.716185144526,"(1.0, 0.0, 0.0, 0.0, 1.0, 0.0, 0.0, 0.0, 1.0)",0.000360037200153,0.010788067244,0.00445429421961,"(1.2184696791468346e-07, 0.0, 0.0, 0.0, 1.2184696791468346e-07, 0.0, 0.0, 0.0, 1.2184696791468346e-07)",0.0,0.0,0.0,"(-1.0, 0.0, 0.0, 0.0, 8.999999999999999e-08, 0.0, 0.0, 0.0, 8.999999999999999e-08)"
1970/01/01/01:00:15.310000,230,15,311000000,base_link,0.00115091016614,-0.00340589415447,-0.697879084978,-0.716206688151,"(1.0, 0.0, 0.0, 0.0, 1.0, 0.0, 0.0, 0.0, 1.0)",-0.00622911332175,-0.00102933845483,-0.000779146503191,"(1.2184696791468346e-07, 0.0, 0.0, 0.0, 1.2184696791468346e-07, 0.0, 0.0, 0.0, 1.2184696791468346e-07)",0.0,0.0,0.0,"(-1.0, 0.0, 0.0, 0.0, 8.999999999999999e-08, 0.0, 0.0, 0.0, 8.999999999999999e-08)"
1970/01/01/01:00:15.332000,231,15,330000000,base_link,0.00111481525934,-0.00343076614577,-0.697873034929,-0.716212401024,"(1.0, 0.0, 0.0, 0.0, 1.0, 0.0, 0.0, 0.0, 1.0)",0.00527841877192,-0.00168240745552,-0.00222575548105,"(1.2184696791468346e-07, 0.0, 0.0, 0.0, 1.2184696791468346e-07, 0.0, 0.0, 0.0, 1.2184696791468346e-07)",0.0,0.0,0.0,"(-1.0, 0.0, 0.0, 0.0, 8.999999999999999e-08, 0.0, 0.0, 0.0, 8.999999999999999e-08)"
1970/01/01/01:00:15.351000,232,15,350000000,base_link,0.00111083946151,-0.00341129282003,-0.697861788306,-0.716223563354,"(1.0, 0.0, 0.0, 0.0, 1.0, 0.0, 0.0, 0.0, 1.0)",-0.00183707464021,-0.00395316816866,-0.00101554044522,"(1.2184696791468346e-07, 0.0, 0.0, 0.0, 1.2184696791468346e-07, 0.0, 0.0, 0.0, 1.2184696791468346e-07)",0.0,0.0,0.0,"(-1.0, 0.0, 0.0, 0.0, 8.999999999999999e-08, 0.0, 0.0, 0.0, 8.999999999999999e-08)"
1970/01/01/01:00:15.371000,233,15,371000000,base_link,0.00108453316028,-0.00351470184153,-0.697893773813,-0.716191915022,"(1.0, 0.0, 0.0, 0.0, 1.0, 0.0, 0.0, 0.0, 1.0)",0.0104337865487,0.00823207572103,0.00375793874264,"(1.2184696791468346e-07, 0.0, 0.0, 0.0, 1.2184696791468346e-07, 0.0, 0.0, 0.0, 1.2184696791468346e-07)",0.0,0.0,0.0,"(-1.0, 0.0, 0.0, 0.0, 8.999999999999999e-08, 0.0, 0.0, 0.0, 8.999999999999999e-08)"
1970/01/01/01:00:15.391000,234,15,390000000,base_link,0.00105091750891,-0.00358915910619,-0.697889570323,-0.716195697043,"(1.0, 0.0, 0.0, 0.0, 1.0, 0.0, 0.0, 0.0, 1.0)",0.0137725863606,-0.000791798811406,-0.00458995020017,"(1.2184696791468346e-07, 0.0, 0.0, 0.0, 1.2184696791468346e-07, 0.0, 0.0, 0.0, 1.2184696791468346e-07)",0.0,0.0,0.0,"(-1.0, 0.0, 0.0, 0.0, 8.999999999999999e-08, 0.0, 0.0, 0.0, 8.999999999999999e-08)"
1970/01/01/01:00:15.411000,235,15,410000000,base_link,0.00106187338462,-0.00358992828618,-0.697870937465,-0.716213739845,"(1.0, 0.0, 0.0, 0.0, 1.0, 0.0, 0.0, 0.0, 1.0)",-0.000374949246179,-0.00156926340424,-0.0058431532234,"(1.2184696791468346e-07, 0.0, 0.0, 0.0, 1.2184696791468346e-07, 0.0, 0.0, 0.0, 1.2184696791468346e-07)",0.0,0.0,0.0,"(-1.0, 0.0, 0.0, 0.0, 8.999999999999999e-08, 0.0, 0.0, 0.0, 8.999999999999999e-08)"
1970/01/01/01:00:15.431000,236,15,431000000,base_link,0.00101949851507,-0.00366835451627,-0.697908695114,-0.716176656546,"(1.0, 0.0, 0.0, 0.0, 1.0, 0.0, 0.0, 0.0, 1.0)",0.00950293429196,0.0039880075492,0.00323534221388,"(1.2184696791468346e-07, 0.0, 0.0, 0.0, 1.2184696791468346e-07, 0.0, 0.0, 0.0, 1.2184696791468346e-07)",0.0,0.0,0.0,"(-1.0, 0.0, 0.0, 0.0, 8.999999999999999e-08, 0.0, 0.0, 0.0, 8.999999999999999e-08)"
1970/01/01/01:00:15.451000,237,15,451000000,base_link,0.00102478753297,-0.0036478488397,-0.697944077394,-0.716142201497,"(1.0, 0.0, 0.0, 0.0, 1.0, 0.0, 0.0, 0.0, 1.0)",-0.00299055152573,-0.00285173673183,0.000201773247682,"(1.2184696791468346e-07, 0.0, 0.0, 0.0, 1.2184696791468346e-07, 0.0, 0.0, 0.0, 1.2184696791468346e-07)",0.0,0.0,0.0,"(-1.0, 0.0, 0.0, 0.0, 8.999999999999999e-08, 0.0, 0.0, 0.0, 8.999999999999999e-08)"
1970/01/01/01:00:15.471000,238,15,471000000,base_link,0.00100385215611,-0.00362987510212,-0.697879337859,-0.716205423745,"(1.0, 0.0, 0.0, 0.0, 1.0, 0.0, 0.0, 0.0, 1.0)",5.60440239497e-05,-0.00383341941051,-0.0157448742539,"(1.2184696791468346e-07, 0.0, 0.0, 0.0, 1.2184696791468346e-07, 0.0, 0.0, 0.0, 1.2184696791468346e-07)",0.0,0.0,0.0,"(-1.0, 0.0, 0.0, 0.0, 8.999999999999999e-08, 0.0, 0.0, 0.0, 8.999999999999999e-08)"
1970/01/01/01:00:15.491000,239,15,490000000,base_link,0.00102276753001,-0.00369474733379,-0.697882176186,-0.716202332537,"(1.0, 0.0, 0.0, 0.0, 1.0, 0.0, 0.0, 0.0, 1.0)",0.00467190286145,0.00750453909859,-0.00204846588895,"(1.2184696791468346e-07, 0.0, 0.0, 0.0, 1.2184696791468346e-07, 0.0, 0.0, 0.0, 1.2184696791468346e-07)",0.0,0.0,0.0,"(-1.0, 0.0, 0.0, 0.0, 8.999999999999999e-08, 0.0, 0.0, 0.0, 8.999999999999999e-08)"
1970/01/01/01:00:15.510000,240,15,510000000,base_link,0.000977879489985,-0.00374676148393,-0.697884874901,-0.716199633822,"(1.0, 0.0, 0.0, 0.0, 1.0, 0.0, 0.0, 0.0, 1.0)",0.0120133887976,-0.0037460536696,-0.00124863896053,"(1.2184696791468346e-07, 0.0, 0.0, 0.0, 1.2184696791468346e-07, 0.0, 0.0, 0.0, 1.2184696791468346e-07)",0.0,0.0,0.0,"(-1.0, 0.0, 0.0, 0.0, 8.999999999999999e-08, 0.0, 0.0, 0.0, 8.999999999999999e-08)"
1970/01/01/01:00:15.531000,241,15,531000000,base_link,0.00100782062763,-0.0037181315084,-0.697827927923,-0.716255063513,"(1.0, 0.0, 0.0, 0.0, 1.0, 0.0, 0.0, 0.0, 1.0)",-0.0131612122059,1.11126573756e-05,-0.00585499033332,"(1.2184696791468346e-07, 0.0, 0.0, 0.0, 1.2184696791468346e-07, 0.0, 0.0, 0.0, 1.2184696791468346e-07)",0.0,0.0,0.0,"(-1.0, 0.0, 0.0, 0.0, 8.999999999999999e-08, 0.0, 0.0, 0.0, 8.999999999999999e-08)"
1970/01/01/01:00:15.551000,242,15,551000000,base_link,0.00102158593653,-0.00369333887172,-0.697886548263,-0.716198129048,"(1.0, 0.0, 0.0, 0.0, 1.0, 0.0, 0.0, 0.0, 1.0)",0.000151127547724,-0.00143255083822,0.0110045261681,"(1.2184696791468346e-07, 0.0, 0.0, 0.0, 1.2184696791468346e-07, 0.0, 0.0, 0.0, 1.2184696791468346e-07)",0.0,0.0,0.0,"(-1.0, 0.0, 0.0, 0.0, 8.999999999999999e-08, 0.0, 0.0, 0.0, 8.999999999999999e-08)"
1970/01/01/01:00:15.571000,243,15,570000000,base_link,0.00102644336082,-0.00373843599963,-0.697918221619,-0.716167045747,"(1.0, 0.0, 0.0, 0.0, 1.0, 0.0, 0.0, 0.0, 1.0)",0.00431998819113,-0.00345971202478,-0.000945648411289,"(1.2184696791468346e-07, 0.0, 0.0, 0.0, 1.2184696791468346e-07, 0.0, 0.0, 0.0, 1.2184696791468346e-07)",0.0,0.0,0.0,"(-1.0, 0.0, 0.0, 0.0, 8.999999999999999e-08, 0.0, 0.0, 0.0, 8.999999999999999e-08)"
1970/01/01/01:00:15.591000,244,15,591000000,base_link,0.00108307752996,-0.00370645115142,-0.697920043153,-0.716165308507,"(1.0, 0.0, 0.0, 0.0, 1.0, 0.0, 0.0, 0.0, 1.0)",-0.00873858481646,-0.00199632765725,0.00539443362504,"(1.2184696791468346e-07, 0.0, 0.0, 0.0, 1.2184696791468346e-07, 0.0, 0.0, 0.0, 1.2184696791468346e-07)",0.0,0.0,0.0,"(-1.0, 0.0, 0.0, 0.0, 8.999999999999999e-08, 0.0, 0.0, 0.0, 8.999999999999999e-08)"
1970/01/01/01:00:15.611000,245,15,611000000,base_link,0.00113131130536,-0.00376000827135,-0.697996968396,-0.716089900551,"(1.0, 0.0, 0.0, 0.0, 1.0, 0.0, 0.0, 0.0, 1.0)",0.00170603522565,0.0063115186058,0.00894095562398,"(1.2184696791468346e-07, 0.0, 0.0, 0.0, 1.2184696791468346e-07, 0.0, 0.0, 0.0, 1.2184696791468346e-07)",0.0,0.0,0.0,"(-1.0, 0.0, 0.0, 0.0, 8.999999999999999e-08, 0.0, 0.0, 0.0, 8.999999999999999e-08)"
1970/01/01/01:00:15.631000,246,15,631000000,base_link,0.0011539938008,-0.0038899023066,-0.697993573599,-0.716092620998,"(1.0, 0.0, 0.0, 0.0, 1.0, 0.0, 0.0, 0.0, 1.0)",0.0094884429127,0.0120472051203,-0.00531873898581,"(1.2184696791468346e-07, 0.0, 0.0, 0.0, 1.2184696791468346e-07, 0.0, 0.0, 0.0, 1.2184696791468346e-07)",0.0,0.0,0.0,"(-1.0, 0.0, 0.0, 0.0, 8.999999999999999e-08, 0.0, 0.0, 0.0, 8.999999999999999e-08)"
1970/01/01/01:00:15.651000,247,15,651000000,base_link,0.00126082988792,-0.00387617651037,-0.698028124137,-0.716058829104,"(1.0, 0.0, 0.0, 0.0, 1.0, 0.0, 0.0, 0.0, 1.0)",-0.0142498873174,0.00232734251767,0.00744078401476,"(1.2184696791468346e-07, 0.0, 0.0, 0.0, 1.2184696791468346e-07, 0.0, 0.0, 0.0, 1.2184696791468346e-07)",0.0,0.0,0.0,"(-1.0, 0.0, 0.0, 0.0, 8.999999999999999e-08, 0.0, 0.0, 0.0, 8.999999999999999e-08)"
1970/01/01/01:00:15.671000,248,15,671000000,base_link,0.00125841986198,-0.00386160003928,-0.698015735597,-0.716070880468,"(1.0, 0.0, 0.0, 0.0, 1.0, 0.0, 0.0, 0.0, 1.0)",-0.00230660312809,-0.00399981858209,-0.00270732142963,"(1.2184696791468346e-07, 0.0, 0.0, 0.0, 1.2184696791468346e-07, 0.0, 0.0, 0.0, 1.2184696791468346e-07)",0.0,0.0,0.0,"(-1.0, 0.0, 0.0, 0.0, 8.999999999999999e-08, 0.0, 0.0, 0.0, 8.999999999999999e-08)"
1970/01/01/01:00:15.692000,249,15,690000000,base_link,0.00128146134649,-0.00389180648804,-0.698004475803,-0.7160816345,"(1.0, 0.0, 0.0, 0.0, 1.0, 0.0, 0.0, 0.0, 1.0)",-0.0061538242735,0.00264556147158,-0.00618036696687,"(1.2184696791468346e-07, 0.0, 0.0, 0.0, 1.2184696791468346e-07, 0.0, 0.0, 0.0, 1.2184696791468346e-07)",0.0,0.0,0.0,"(-1.0, 0.0, 0.0, 0.0, 8.999999999999999e-08, 0.0, 0.0, 0.0, 8.999999999999999e-08)"
1970/01/01/01:00:15.711000,250,15,711000000,base_link,0.00127811091899,-0.00388252866606,-0.69792958678,-0.716154753355,"(1.0, 0.0, 0.0, 0.0, 1.0, 0.0, 0.0, 0.0, 1.0)",0.00335148302838,-0.00119201850612,-0.011221928522,"(1.2184696791468346e-07, 0.0, 0.0, 0.0, 1.2184696791468346e-07, 0.0, 0.0, 0.0, 1.2184696791468346e-07)",0.0,0.0,0.0,"(-1.0, 0.0, 0.0, 0.0, 8.999999999999999e-08, 0.0, 0.0, 0.0, 8.999999999999999e-08)"
1970/01/01/01:00:15.731000,251,15,731000000,base_link,0.00122295748718,-0.00389588921704,-0.697887515006,-0.716195813605,"(1.0, 0.0, 0.0, 0.0, 1.0, 0.0, 0.0, 0.0, 1.0)",0.00707423035055,-0.00453489273787,-0.00439799483865,"(1.2184696791468346e-07, 0.0, 0.0, 0.0, 1.2184696791468346e-07, 0.0, 0.0, 0.0, 1.2184696791468346e-07)",0.0,0.0,0.0,"(-1.0, 0.0, 0.0, 0.0, 8.999999999999999e-08, 0.0, 0.0, 0.0, 8.999999999999999e-08)"
1970/01/01/01:00:15.751000,252,15,751000000,base_link,0.00117005981725,-0.00384818005466,-0.697881347737,-0.716202233756,"(1.0, 0.0, 0.0, 0.0, 1.0, 0.0, 0.0, 0.0, 1.0)",-0.00171967141796,-0.00861360691488,-0.00260184565559,"(1.2184696791468346e-07, 0.0, 0.0, 0.0, 1.2184696791468346e-07, 0.0, 0.0, 0.0, 1.2184696791468346e-07)",0.0,0.0,0.0,"(-1.0, 0.0, 0.0, 0.0, 8.999999999999999e-08, 0.0, 0.0, 0.0, 8.999999999999999e-08)"
1970/01/01/01:00:15.771000,253,15,770000000,base_link,0.00124600053574,-0.00389744741566,-0.697859866673,-0.716222703295,"(1.0, 0.0, 0.0, 0.0, 1.0, 0.0, 0.0, 0.0, 1.0)",-0.00124120339751,0.0101068904623,-0.00469565950334,"(1.2184696791468346e-07, 0.0, 0.0, 0.0, 1.2184696791468346e-07, 0.0, 0.0, 0.0, 1.2184696791468346e-07)",0.0,0.0,0.0,"(-1.0, 0.0, 0.0, 0.0, 8.999999999999999e-08, 0.0, 0.0, 0.0, 8.999999999999999e-08)"
1970/01/01/01:00:15.791000,254,15,791000000,base_link,0.00127834939442,-0.00386241597593,-0.697843186399,-0.716239130687,"(1.0, 0.0, 0.0, 0.0, 1.0, 0.0, 0.0, 0.0, 1.0)",-0.000874229590409,-0.00718865124509,-0.00375703419559,"(1.2184696791468346e-07, 0.0, 0.0, 0.0, 1.2184696791468346e-07, 0.0, 0.0, 0.0, 1.2184696791468346e-07)",0.0,0.0,0.0,"(-1.0, 0.0, 0.0, 0.0, 8.999999999999999e-08, 0.0, 0.0, 0.0, 8.999999999999999e-08)"
1970/01/01/01:00:15.811000,255,15,810000000,base_link,0.0012884629917,-0.00385093359388,-0.697851385279,-0.716231100396,"(1.0, 0.0, 0.0, 0.0, 1.0, 0.0, 0.0, 0.0, 1.0)",-0.00115045509301,-0.00165769062005,0.00031714385841,"(1.2184696791468346e-07, 0.0, 0.0, 0.0, 1.2184696791468346e-07, 0.0, 0.0, 0.0, 1.2184696791468346e-07)",0.0,0.0,0.0,"(-1.0, 0.0, 0.0, 0.0, 8.999999999999999e-08, 0.0, 0.0, 0.0, 8.999999999999999e-08)"
1970/01/01/01:00:15.831000,256,15,831000000,base_link,0.00135206966546,-0.0038010661342,-0.697870733975,-0.716212341755,"(1.0, 0.0, 0.0, 0.0, 1.0, 0.0, 0.0, 0.0, 1.0)",-0.00635091867298,-0.00023037858773,0.00331354350783,"(1.2184696791468346e-07, 0.0, 0.0, 0.0, 1.2184696791468346e-07, 0.0, 0.0, 0.0, 1.2184696791468346e-07)",0.0,0.0,0.0,"(-1.0, 0.0, 0.0, 0.0, 8.999999999999999e-08, 0.0, 0.0, 0.0, 8.999999999999999e-08)"
1970/01/01/01:00:15.851000,257,15,850000000,base_link,0.00137439325414,-0.00379088017934,-0.697912563405,-0.716171692437,"(1.0, 0.0, 0.0, 0.0, 1.0, 0.0, 0.0, 0.0, 1.0)",-0.00246516545303,-8.86962516233e-06,0.00730373896658,"(1.2184696791468346e-07, 0.0, 0.0, 0.0, 1.2184696791468346e-07, 0.0, 0.0, 0.0, 1.2184696791468346e-07)",0.0,0.0,0.0,"(-1.0, 0.0, 0.0, 0.0, 8.999999999999999e-08, 0.0, 0.0, 0.0, 8.999999999999999e-08)"
1970/01/01/01:00:15.871000,258,15,871000000,base_link,0.00139513551283,-0.00379804308563,-0.697904793238,-0.716179209723,"(1.0, 0.0, 0.0, 0.0, 1.0, 0.0, 0.0, 0.0, 1.0)",0.000394688191591,0.00237823324278,-0.00193262612447,"(1.2184696791468346e-07, 0.0, 0.0, 0.0, 1.2184696791468346e-07, 0.0, 0.0, 0.0, 1.2184696791468346e-07)",0.0,0.0,0.0,"(-1.0, 0.0, 0.0, 0.0, 8.999999999999999e-08, 0.0, 0.0, 0.0, 8.999999999999999e-08)"
1970/01/01/01:00:15.892000,259,15,892000000,base_link,0.00137586156144,-0.00376700489516,-0.697916311182,-0.716168113248,"(1.0, 0.0, 0.0, 0.0, 1.0, 0.0, 0.0, 0.0, 1.0)",0.0022001080215,0.000848922354635,-0.000123764039017,"(1.2184696791468346e-07, 0.0, 0.0, 0.0, 1.2184696791468346e-07, 0.0, 0.0, 0.0, 1.2184696791468346e-07)",0.0,0.0,0.0,"(-1.0, 0.0, 0.0, 0.0, 8.999999999999999e-08, 0.0, 0.0, 0.0, 8.999999999999999e-08)"
1970/01/01/01:00:15.911000,260,15,910000000,base_link,0.00140882220798,-0.00373984108665,-0.697923164654,-0.716161512656,"(1.0, 0.0, 0.0, 0.0, 1.0, 0.0, 0.0, 0.0, 1.0)",0.000628177425824,0.00396162364632,0.00424642348662,"(1.2184696791468346e-07, 0.0, 0.0, 0.0, 1.2184696791468346e-07, 0.0, 0.0, 0.0, 1.2184696791468346e-07)",0.0,0.0,0.0,"(-1.0, 0.0, 0.0, 0.0, 8.999999999999999e-08, 0.0, 0.0, 0.0, 8.999999999999999e-08)"
1970/01/01/01:00:15.931000,261,15,931000000,base_link,0.00144367230102,-0.0037394990551,-0.697863138322,-0.716219937408,"(1.0, 0.0, 0.0, 0.0, 1.0, 0.0, 0.0, 0.0, 1.0)",-0.00620068702847,-0.0035124742426,-0.00911622215062,"(1.2184696791468346e-07, 0.0, 0.0, 0.0, 1.2184696791468346e-07, 0.0, 0.0, 0.0, 1.2184696791468346e-07)",0.0,0.0,0.0,"(-1.0, 0.0, 0.0, 0.0, 8.999999999999999e-08, 0.0, 0.0, 0.0, 8.999999999999999e-08)"
1970/01/01/01:00:15.951000,262,15,950000000,base_link,0.00139351952693,-0.00369756359938,-0.697813447847,-0.716268700653,"(1.0, 0.0, 0.0, 0.0, 1.0, 0.0, 0.0, 0.0, 1.0)",-0.000531119992957,-0.0104823615402,-0.00755615066737,"(1.2184696791468346e-07, 0.0, 0.0, 0.0, 1.2184696791468346e-07, 0.0, 0.0, 0.0, 1.2184696791468346e-07)",0.0,0.0,0.0,"(-1.0, 0.0, 0.0, 0.0, 8.999999999999999e-08, 0.0, 0.0, 0.0, 8.999999999999999e-08)"
1970/01/01/01:00:15.971000,263,15,971000000,base_link,0.00137092601731,-0.00383317849309,-0.697829468917,-0.716252342407,"(1.0, 0.0, 0.0, 0.0, 1.0, 0.0, 0.0, 0.0, 1.0)",0.00975187681615,0.0065597416833,0.00198259856552,"(1.2184696791468346e-07, 0.0, 0.0, 0.0, 1.2184696791468346e-07, 0.0, 0.0, 0.0, 1.2184696791468346e-07)",0.0,0.0,0.0,"(-1.0, 0.0, 0.0, 0.0, 8.999999999999999e-08, 0.0, 0.0, 0.0, 8.999999999999999e-08)"
1970/01/01/01:00:15.991000,264,15,991000000,base_link,0.00138160176465,-0.00384175134317,-0.697794053711,-0.716286914677,"(1.0, 0.0, 0.0, 0.0, 1.0, 0.0, 0.0, 0.0, 1.0)",-0.00159983942285,-0.00437756162137,-0.00595687190071,"(1.2184696791468346e-07, 0.0, 0.0, 0.0, 1.2184696791468346e-07, 0.0, 0.0, 0.0, 1.2184696791468346e-07)",0.0,0.0,0.0,"(-1.0, 0.0, 0.0, 0.0, 8.999999999999999e-08, 0.0, 0.0, 0.0, 8.999999999999999e-08)"
1970/01/01/01:00:16.011000,265,16,11000000,base_link,0.00140443309115,-0.00386182089864,-0.697855938455,-0.716226462925,"(1.0, 0.0, 0.0, 0.0, 1.0, 0.0, 0.0, 0.0, 1.0)",-0.00392253324389,0.00106638029683,0.00862976629287,"(1.2184696791468346e-07, 0.0, 0.0, 0.0, 1.2184696791468346e-07, 0.0, 0.0, 0.0, 1.2184696791468346e-07)",0.0,0.0,0.0,"(-1.0, 0.0, 0.0, 0.0, 8.999999999999999e-08, 0.0, 0.0, 0.0, 8.999999999999999e-08)"
1970/01/01/01:00:16.031000,266,16,31000000,base_link,0.00127036841121,-0.00390887834891,-0.697853243033,-0.716228989761,"(1.0, 0.0, 0.0, 0.0, 1.0, 0.0, 0.0, 0.0, 1.0)",0.0132702644914,-0.0099819926545,-0.00309944781475,"(1.2184696791468346e-07, 0.0, 0.0, 0.0, 1.2184696791468346e-07, 0.0, 0.0, 0.0, 1.2184696791468346e-07)",0.0,0.0,0.0,"(-1.0, 0.0, 0.0, 0.0, 8.999999999999999e-08, 0.0, 0.0, 0.0, 8.999999999999999e-08)"
1970/01/01/01:00:16.051000,267,16,51000000,base_link,0.00113860880169,-0.00391028829271,-0.697834339513,-0.716247724693,"(1.0, 0.0, 0.0, 0.0, 1.0, 0.0, 0.0, 0.0, 1.0)",0.00639898469672,-0.00339727569371,-0.00464934110641,"(1.2184696791468346e-07, 0.0, 0.0, 0.0, 1.2184696791468346e-07, 0.0, 0.0, 0.0, 1.2184696791468346e-07)",0.0,0.0,0.0,"(-1.0, 0.0, 0.0, 0.0, 8.999999999999999e-08, 0.0, 0.0, 0.0, 8.999999999999999e-08)"
1970/01/01/01:00:16.071000,268,16,71000000,base_link,0.00120614509284,-0.0039292610423,-0.697812756375,-0.716268549188,"(1.0, 0.0, 0.0, 0.0, 1.0, 0.0, 0.0, 0.0, 1.0)",-0.00451392820105,0.00622331164777,-0.00766391074285,"(1.2184696791468346e-07, 0.0, 0.0, 0.0, 1.2184696791468346e-07, 0.0, 0.0, 0.0, 1.2184696791468346e-07)",0.0,0.0,0.0,"(-1.0, 0.0, 0.0, 0.0, 8.999999999999999e-08, 0.0, 0.0, 0.0, 8.999999999999999e-08)"
1970/01/01/01:00:16.091000,269,16,91000000,base_link,0.00112640004505,-0.00399374497966,-0.697878726729,-0.716204011826,"(1.0, 0.0, 0.0, 0.0, 1.0, 0.0, 0.0, 0.0, 1.0)",0.0133485496044,-0.00533620361239,0.0126849301159,"(1.2184696791468346e-07, 0.0, 0.0, 0.0, 1.2184696791468346e-07, 0.0, 0.0, 0.0, 1.2184696791468346e-07)",0.0,0.0,0.0,"(-1.0, 0.0, 0.0, 0.0, 8.999999999999999e-08, 0.0, 0.0, 0.0, 8.999999999999999e-08)"
1970/01/01/01:00:16.111000,270,16,110000000,base_link,0.00108347841893,-0.0039332481177,-0.69789565264,-0.716187928852,"(1.0, 0.0, 0.0, 0.0, 1.0, 0.0, 0.0, 0.0, 1.0)",0.00285167293623,-0.00962029024959,-0.000556833576411,"(1.2184696791468346e-07, 0.0, 0.0, 0.0, 1.2184696791468346e-07, 0.0, 0.0, 0.0, 1.2184696791468346e-07)",0.0,0.0,0.0,"(-1.0, 0.0, 0.0, 0.0, 8.999999999999999e-08, 0.0, 0.0, 0.0, 8.999999999999999e-08)"
1970/01/01/01:00:16.131000,271,16,130000000,base_link,0.00108706649868,-0.0039264410724,-0.697937032285,-0.716147560732,"(1.0, 0.0, 0.0, 0.0, 1.0, 0.0, 0.0, 0.0, 1.0)",-0.00040952191921,-0.000464928685687,0.00528340600431,"(1.2184696791468346e-07, 0.0, 0.0, 0.0, 1.2184696791468346e-07, 0.0, 0.0, 0.0, 1.2184696791468346e-07)",0.0,0.0,0.0,"(-1.0, 0.0, 0.0, 0.0, 8.999999999999999e-08, 0.0, 0.0, 0.0, 8.999999999999999e-08)"
1970/01/01/01:00:16.151000,272,16,150000000,base_link,0.00107285807165,-0.00393616975041,-0.697979226548,-0.71610654658,"(1.0, 0.0, 0.0, 0.0, 1.0, 0.0, 0.0, 0.0, 1.0)",0.00103618681896,-0.00161707936786,0.00467721605673,"(1.2184696791468346e-07, 0.0, 0.0, 0.0, 1.2184696791468346e-07, 0.0, 0.0, 0.0, 1.2184696791468346e-07)",0.0,0.0,0.0,"(-1.0, 0.0, 0.0, 0.0, 8.999999999999999e-08, 0.0, 0.0, 0.0, 8.999999999999999e-08)"
1970/01/01/01:00:16.171000,273,16,171000000,base_link,0.00100379371028,-0.00399259466704,-0.69797118572,-0.716114081646,"(1.0, 0.0, 0.0, 0.0, 1.0, 0.0, 0.0, 0.0, 1.0)",0.0105326585472,0.00328892655671,-0.00269975652918,"(1.2184696791468346e-07, 0.0, 0.0, 0.0, 1.2184696791468346e-07, 0.0, 0.0, 0.0, 1.2184696791468346e-07)",0.0,0.0,0.0,"(-1.0, 0.0, 0.0, 0.0, 8.999999999999999e-08, 0.0, 0.0, 0.0, 8.999999999999999e-08)"
1970/01/01/01:00:16.191000,274,16,191000000,base_link,0.00102116068141,-0.00406110914374,-0.6979575578,-0.716126866629,"(1.0, 0.0, 0.0, 0.0, 1.0, 0.0, 0.0, 0.0, 1.0)",-0.00108713447116,0.00220705918036,-0.00143986579496,"(1.2184696791468346e-07, 0.0, 0.0, 0.0, 1.2184696791468346e-07, 0.0, 0.0, 0.0, 1.2184696791468346e-07)",0.0,0.0,0.0,"(-1.0, 0.0, 0.0, 0.0, 8.999999999999999e-08, 0.0, 0.0, 0.0, 8.999999999999999e-08)"
1970/01/01/01:00:16.211000,275,16,211000000,base_link,0.00104467434234,-0.00410330373673,-0.697974621347,-0.716110055964,"(1.0, 0.0, 0.0, 0.0, 1.0, 0.0, 0.0, 0.0, 1.0)",0.00554594304413,0.000823845271952,-0.00768307317048,"(1.2184696791468346e-07, 0.0, 0.0, 0.0, 1.2184696791468346e-07, 0.0, 0.0, 0.0, 1.2184696791468346e-07)",0.0,0.0,0.0,"(-1.0, 0.0, 0.0, 0.0, 8.999999999999999e-08, 0.0, 0.0, 0.0, 8.999999999999999e-08)"
1970/01/01/01:00:16.231000,276,16,230000000,base_link,0.00112218321993,-0.00416692456919,-0.697902488332,-0.716179744461,"(1.0, 0.0, 0.0, 0.0, 1.0, 0.0, 0.0, 0.0, 1.0)",-0.00356613681652,0.0121238790452,-0.0128403324634,"(1.2184696791468346e-07, 0.0, 0.0, 0.0, 1.2184696791468346e-07, 0.0, 0.0, 0.0, 1.2184696791468346e-07)",0.0,0.0,0.0,"(-1.0, 0.0, 0.0, 0.0, 8.999999999999999e-08, 0.0, 0.0, 0.0, 8.999999999999999e-08)"
1970/01/01/01:00:16.250000,277,16,251000000,base_link,0.00105542656316,-0.00419795584495,-0.697884343456,-0.716197467869,"(1.0, 0.0, 0.0, 0.0, 1.0, 0.0, 0.0, 0.0, 1.0)",0.0062775737606,-0.00659016240388,-0.0049199978821,"(1.2184696791468346e-07, 0.0, 0.0, 0.0, 1.2184696791468346e-07, 0.0, 0.0, 0.0, 1.2184696791468346e-07)",0.0,0.0,0.0,"(-1.0, 0.0, 0.0, 0.0, 8.999999999999999e-08, 0.0, 0.0, 0.0, 8.999999999999999e-08)"
1970/01/01/01:00:16.271000,278,16,271000000,base_link,0.000946748280095,-0.00416357027274,-0.697868467265,-0.716213259766,"(1.0, 0.0, 0.0, 0.0, 1.0, 0.0, 0.0, 0.0, 1.0)",0.0071523822844,-0.00726368371397,-0.0039514536038,"(1.2184696791468346e-07, 0.0, 0.0, 0.0, 1.2184696791468346e-07, 0.0, 0.0, 0.0, 1.2184696791468346e-07)",0.0,0.0,0.0,"(-1.0, 0.0, 0.0, 0.0, 8.999999999999999e-08, 0.0, 0.0, 0.0, 8.999999999999999e-08)"
1970/01/01/01:00:16.291000,279,16,291000000,base_link,0.000916200705276,-0.00418571119764,-0.697918222936,-0.7161647685,"(1.0, 0.0, 0.0, 0.0, 1.0, 0.0, 0.0, 0.0, 1.0)",0.00157823169138,0.00123377027921,0.00643148738891,"(1.2184696791468346e-07, 0.0, 0.0, 0.0, 1.2184696791468346e-07, 0.0, 0.0, 0.0, 1.2184696791468346e-07)",0.0,0.0,0.0,"(-1.0, 0.0, 0.0, 0.0, 8.999999999999999e-08, 0.0, 0.0, 0.0, 8.999999999999999e-08)"
1970/01/01/01:00:16.311000,280,16,311000000,base_link,0.000888385760892,-0.00414792029178,-0.697929412266,-0.716154000639,"(1.0, 0.0, 0.0, 0.0, 1.0, 0.0, 0.0, 0.0, 1.0)",-0.00190421566367,-0.00797881837934,-0.00252623250708,"(1.2184696791468346e-07, 0.0, 0.0, 0.0, 1.2184696791468346e-07, 0.0, 0.0, 0.0, 1.2184696791468346e-07)",0.0,0.0,0.0,"(-1.0, 0.0, 0.0, 0.0, 8.999999999999999e-08, 0.0, 0.0, 0.0, 8.999999999999999e-08)"
1970/01/01/01:00:16.331000,281,16,331000000,base_link,0.000955381798595,-0.00414877969236,-0.69792875899,-0.716154485328,"(1.0, 0.0, 0.0, 0.0, 1.0, 0.0, 0.0, 0.0, 1.0)",-0.00579163711518,0.000510495970957,-0.0032808938995,"(1.2184696791468346e-07, 0.0, 0.0, 0.0, 1.2184696791468346e-07, 0.0, 0.0, 0.0, 1.2184696791468346e-07)",0.0,0.0,0.0,"(-1.0, 0.0, 0.0, 0.0, 8.999999999999999e-08, 0.0, 0.0, 0.0, 8.999999999999999e-08)"
