time,.header.seq,.header.stamp.secs,.header.stamp.nsecs,.header.frame_id,.orientation.x,.orientation.y,.orientation.z,.orientation.w,.orientation_covariance,.angular_velocity.x,.angular_velocity.y,.angular_velocity.z,.angular_velocity_covariance,.linear_acceleration.x,.linear_acceleration.y,.linear_acceleration.z,.linear_acceleration_covariance
1970/01/01/01:00:10.510000,0,10,509000000,base_link,0.000187500500733,6.77450568789e-05,-0.674876137374,-0.737930999116,"(1.0, 0.0, 0.0, 0.0, 1.0, 0.0, 0.0, 0.0, 1.0)",0.00327902543359,-0.00116295530461,0.00162433134392,"(1.2184696791468346e-07, 0.0, 0.0, 0.0, 1.2184696791468346e-07, 0.0, 0.0, 0.0, 1.2184696791468346e-07)",0.0,0.0,0.0,"(-1.0, 0.0, 0.0, 0.0, 8.999999999999999e-08, 0.0, 0.0, 0.0, 8.999999999999999e-08)"
1970/01/01/01:00:10.510000,1,10,510000000,base_link,0.000187500509345,6.77450651974e-05,-0.674876169436,-0.737931036896,"(1.0, 0.0, 0.0, 0.0, 1.0, 0.0, 0.0, 0.0, 1.0)",0.00327902543359,-0.00116295530461,0.00162433134392,"(1.2184696791468346e-07, 0.0, 0.0, 0.0, 1.2184696791468346e-07, 0.0, 0.0, 0.0, 1.2184696791468346e-07)",0.0,0.0,0.0,"(-1.0, 0.0, 0.0, 0.0, 8.999999999999999e-08, 0.0, 0.0, 0.0, 8.999999999999999e-08)"
1970/01/01/01:00:10.526000,2,10,526000000,base_link,0.00024951803803,4.87509695015e-05,-0.674899460838,-0.737909768542,"(1.0, 0.0, 0.0, 0.0, 1.0, 0.0, 0.0, 0.0, 1.0)",0.0016909976257,0.00137466704473,0.00819281674922,"(1.2184696791468346e-07, 0.0, 0.0, 0.0, 1.2184696791468346e-07, 0.0, 0.0, 0.0, 1.2184696791468346e-07)",0.0,0.0,0.0,"(-1.0, 0.0, 0.0, 0.0, 8.999999999999999e-08, 0.0, 0.0, 0.0, 8.999999999999999e-08)"
1970/01/01/01:00:10.546000,3,10,546000000,base_link,0.000243113358273,9.45908172809e-05,-0.675053165127,-0.737769045483,"(1.0, 0.0, 0.0, 0.0, 1.0, 0.0, 0.0, 0.0, 1.0)",-0.00432321755216,-0.00841474719346,0.0256082490087,"(1.2184696791468346e-07, 0.0, 0.0, 0.0, 1.2184696791468346e-07, 0.0, 0.0, 0.0, 1.2184696791468346e-07)",0.0,0.0,0.0,"(-1.0, 0.0, 0.0, 0.0, 8.999999999999999e-08, 0.0, 0.0, 0.0, 8.999999999999999e-08)"
1970/01/01/01:00:10.566000,4,10,566000000,base_link,0.000266766913607,0.000125022946161,-0.675669818301,-0.737204317226,"(1.0, 0.0, 0.0, 0.0, 1.0, 0.0, 0.0, 0.0, 1.0)",-0.00666532060131,0.00535885710269,0.107098884881,"(1.2184696791468346e-07, 0.0, 0.0, 0.0, 1.2184696791468346e-07, 0.0, 0.0, 0.0, 1.2184696791468346e-07)",0.0,0.0,0.0,"(-1.0, 0.0, 0.0, 0.0, 8.999999999999999e-08, 0.0, 0.0, 0.0, 8.999999999999999e-08)"
1970/01/01/01:00:10.586000,5,10,586000000,base_link,0.000346816301564,0.000118127851396,-0.676739903077,-0.736222150776,"(1.0, 0.0, 0.0, 0.0, 1.0, 0.0, 0.0, 0.0, 1.0)",-0.00868638046086,0.00204939115793,0.159390628338,"(1.2184696791468346e-07, 0.0, 0.0, 0.0, 1.2184696791468346e-07, 0.0, 0.0, 0.0, 1.2184696791468346e-07)",0.0,0.0,0.0,"(-1.0, 0.0, 0.0, 0.0, 8.999999999999999e-08, 0.0, 0.0, 0.0, 8.999999999999999e-08)"
1970/01/01/01:00:10.606000,6,10,606000000,base_link,0.000362969564875,2.80171587067e-05,-0.67799441456,-0.735067021562,"(1.0, 0.0, 0.0, 0.0, 1.0, 0.0, 0.0, 0.0, 1.0)",0.00346500915475,0.00997701380402,0.174281150103,"(1.2184696791468346e-07, 0.0, 0.0, 0.0, 1.2184696791468346e-07, 0.0, 0.0, 0.0, 1.2184696791468346e-07)",0.0,0.0,0.0,"(-1.0, 0.0, 0.0, 0.0, 8.999999999999999e-08, 0.0, 0.0, 0.0, 8.999999999999999e-08)"
1970/01/01/01:00:10.626000,7,10,625000000,base_link,0.000361127235165,3.46831623015e-05,-0.679210928025,-0.733943062577,"(1.0, 0.0, 0.0, 0.0, 1.0, 0.0, 0.0, 0.0, 1.0)",-0.000188251622603,-0.00641869474202,0.169687658548,"(1.2184696791468346e-07, 0.0, 0.0, 0.0, 1.2184696791468346e-07, 0.0, 0.0, 0.0, 1.2184696791468346e-07)",0.0,0.0,0.0,"(-1.0, 0.0, 0.0, 0.0, 8.999999999999999e-08, 0.0, 0.0, 0.0, 8.999999999999999e-08)"
1970/01/01/01:00:10.646000,8,10,646000000,base_link,0.000351324861902,6.15089110956e-05,-0.680409934742,-0.732831721304,"(1.0, 0.0, 0.0, 0.0, 1.0, 0.0, 0.0, 0.0, 1.0)",-0.000197247194592,-0.00416503334418,0.169127359986,"(1.2184696791468346e-07, 0.0, 0.0, 0.0, 1.2184696791468346e-07, 0.0, 0.0, 0.0, 1.2184696791468346e-07)",0.0,0.0,0.0,"(-1.0, 0.0, 0.0, 0.0, 8.999999999999999e-08, 0.0, 0.0, 0.0, 8.999999999999999e-08)"
1970/01/01/01:00:10.666000,9,10,666000000,base_link,0.000382452089655,8.82235819528e-05,-0.681701351059,-0.73163041495,"(1.0, 0.0, 0.0, 0.0, 1.0, 0.0, 0.0, 0.0, 1.0)",-0.00629096478224,-0.00257730926387,0.149969339371,"(1.2184696791468346e-07, 0.0, 0.0, 0.0, 1.2184696791468346e-07, 0.0, 0.0, 0.0, 1.2184696791468346e-07)",0.0,0.0,0.0,"(-1.0, 0.0, 0.0, 0.0, 8.999999999999999e-08, 0.0, 0.0, 0.0, 8.999999999999999e-08)"
1970/01/01/01:00:10.686000,10,10,686000000,base_link,0.000444316707393,8.83317478882e-05,-0.682511666368,-0.730874637662,"(1.0, 0.0, 0.0, 0.0, 1.0, 0.0, 0.0, 0.0, 1.0)",-0.00587898585945,0.00557998893782,0.144869983196,"(1.2184696791468346e-07, 0.0, 0.0, 0.0, 1.2184696791468346e-07, 0.0, 0.0, 0.0, 1.2184696791468346e-07)",0.0,0.0,0.0,"(-1.0, 0.0, 0.0, 0.0, 8.999999999999999e-08, 0.0, 0.0, 0.0, 8.999999999999999e-08)"
1970/01/01/01:00:10.706000,11,10,706000000,base_link,0.000447033275517,0.000140261120719,-0.683432517056,-0.730013635499,"(1.0, 0.0, 0.0, 0.0, 1.0, 0.0, 0.0, 0.0, 1.0)",-0.00874180253595,-0.000783919298556,0.130459606647,"(1.2184696791468346e-07, 0.0, 0.0, 0.0, 1.2184696791468346e-07, 0.0, 0.0, 0.0, 1.2184696791468346e-07)",0.0,0.0,0.0,"(-1.0, 0.0, 0.0, 0.0, 8.999999999999999e-08, 0.0, 0.0, 0.0, 8.999999999999999e-08)"
1970/01/01/01:00:10.726000,12,10,726000000,base_link,0.000502965796355,0.000159651562456,-0.684352127047,-0.729151598104,"(1.0, 0.0, 0.0, 0.0, 1.0, 0.0, 0.0, 0.0, 1.0)",-0.00248841708526,0.000861357431859,0.126682400703,"(1.2184696791468346e-07, 0.0, 0.0, 0.0, 1.2184696791468346e-07, 0.0, 0.0, 0.0, 1.2184696791468346e-07)",0.0,0.0,0.0,"(-1.0, 0.0, 0.0, 0.0, 8.999999999999999e-08, 0.0, 0.0, 0.0, 8.999999999999999e-08)"
1970/01/01/01:00:10.746000,13,10,746000000,base_link,0.000532045526915,0.000204492135828,-0.685145994548,-0.728405525128,"(1.0, 0.0, 0.0, 0.0, 1.0, 0.0, 0.0, 0.0, 1.0)",-0.00359543133527,-0.00746219465509,0.114945441484,"(1.2184696791468346e-07, 0.0, 0.0, 0.0, 1.2184696791468346e-07, 0.0, 0.0, 0.0, 1.2184696791468346e-07)",0.0,0.0,0.0,"(-1.0, 0.0, 0.0, 0.0, 8.999999999999999e-08, 0.0, 0.0, 0.0, 8.999999999999999e-08)"
1970/01/01/01:00:10.766000,14,10,766000000,base_link,0.00049475501198,0.000231560393637,-0.685894893997,-0.727700542696,"(1.0, 0.0, 0.0, 0.0, 1.0, 0.0, 0.0, 0.0, 1.0)",0.000315538723953,0.000353618524969,0.10314540565,"(1.2184696791468346e-07, 0.0, 0.0, 0.0, 1.2184696791468346e-07, 0.0, 0.0, 0.0, 1.2184696791468346e-07)",0.0,0.0,0.0,"(-1.0, 0.0, 0.0, 0.0, 8.999999999999999e-08, 0.0, 0.0, 0.0, 8.999999999999999e-08)"
1970/01/01/01:00:10.787000,15,10,785000000,base_link,0.000559361582675,0.00022326514064,-0.686549308114,-0.727082964925,"(1.0, 0.0, 0.0, 0.0, 1.0, 0.0, 0.0, 0.0, 1.0)",-0.00426770327613,0.00488518178463,0.0928100347519,"(1.2184696791468346e-07, 0.0, 0.0, 0.0, 1.2184696791468346e-07, 0.0, 0.0, 0.0, 1.2184696791468346e-07)",0.0,0.0,0.0,"(-1.0, 0.0, 0.0, 0.0, 8.999999999999999e-08, 0.0, 0.0, 0.0, 8.999999999999999e-08)"
1970/01/01/01:00:10.805000,16,10,806000000,base_link,0.000549246143527,0.000276304675454,-0.687165496356,-0.726500662748,"(1.0, 0.0, 0.0, 0.0, 1.0, 0.0, 0.0, 0.0, 1.0)",0.000926058390178,-0.00127019057982,0.0869536101818,"(1.2184696791468346e-07, 0.0, 0.0, 0.0, 1.2184696791468346e-07, 0.0, 0.0, 0.0, 1.2184696791468346e-07)",0.0,0.0,0.0,"(-1.0, 0.0, 0.0, 0.0, 8.999999999999999e-08, 0.0, 0.0, 0.0, 8.999999999999999e-08)"
1970/01/01/01:00:10.826000,17,10,826000000,base_link,0.000685220952389,0.000165018370924,-0.687821982254,-0.725879158735,"(1.0, 0.0, 0.0, 0.0, 1.0, 0.0, 0.0, 0.0, 1.0)",-0.00286210421473,0.0173583868891,0.0945735126734,"(1.2184696791468346e-07, 0.0, 0.0, 0.0, 1.2184696791468346e-07, 0.0, 0.0, 0.0, 1.2184696791468346e-07)",0.0,0.0,0.0,"(-1.0, 0.0, 0.0, 0.0, 8.999999999999999e-08, 0.0, 0.0, 0.0, 8.999999999999999e-08)"
1970/01/01/01:00:10.846000,18,10,846000000,base_link,0.000710195450253,0.00018210148879,-0.688353727968,-0.725374808472,"(1.0, 0.0, 0.0, 0.0, 1.0, 0.0, 0.0, 0.0, 1.0)",-0.00561270490289,7.93713261373e-05,0.0713832378387,"(1.2184696791468346e-07, 0.0, 0.0, 0.0, 1.2184696791468346e-07, 0.0, 0.0, 0.0, 1.2184696791468346e-07)",0.0,0.0,0.0,"(-1.0, 0.0, 0.0, 0.0, 8.999999999999999e-08, 0.0, 0.0, 0.0, 8.999999999999999e-08)"
1970/01/01/01:00:10.866000,19,10,866000000,base_link,0.000707972142256,0.000232149039819,-0.688996759802,-0.724764145418,"(1.0, 0.0, 0.0, 0.0, 1.0, 0.0, 0.0, 0.0, 1.0)",-0.000848894007504,-0.00797703675926,0.0724061280489,"(1.2184696791468346e-07, 0.0, 0.0, 0.0, 1.2184696791468346e-07, 0.0, 0.0, 0.0, 1.2184696791468346e-07)",0.0,0.0,0.0,"(-1.0, 0.0, 0.0, 0.0, 8.999999999999999e-08, 0.0, 0.0, 0.0, 8.999999999999999e-08)"
1970/01/01/01:00:10.886000,20,10,886000000,base_link,0.000635050685706,0.000248106643383,-0.689382981668,-0.72439680534,"(1.0, 0.0, 0.0, 0.0, 1.0, 0.0, 0.0, 0.0, 1.0)",0.0022992324084,-0.0085133779794,0.0663582831621,"(1.2184696791468346e-07, 0.0, 0.0, 0.0, 1.2184696791468346e-07, 0.0, 0.0, 0.0, 1.2184696791468346e-07)",0.0,0.0,0.0,"(-1.0, 0.0, 0.0, 0.0, 8.999999999999999e-08, 0.0, 0.0, 0.0, 8.999999999999999e-08)"
1970/01/01/01:00:10.906000,21,10,906000000,base_link,0.000657442660123,0.000302192430494,-0.689842934177,-0.723958769193,"(1.0, 0.0, 0.0, 0.0, 1.0, 0.0, 0.0, 0.0, 1.0)",-0.0056563722901,-0.0035545444116,0.062494173646,"(1.2184696791468346e-07, 0.0, 0.0, 0.0, 1.2184696791468346e-07, 0.0, 0.0, 0.0, 1.2184696791468346e-07)",0.0,0.0,0.0,"(-1.0, 0.0, 0.0, 0.0, 8.999999999999999e-08, 0.0, 0.0, 0.0, 8.999999999999999e-08)"
1970/01/01/01:00:10.926000,22,10,926000000,base_link,0.000661926216349,0.000276680066403,-0.690295389815,-0.723527471272,"(1.0, 0.0, 0.0, 0.0, 1.0, 0.0, 0.0, 0.0, 1.0)",-0.000296264130156,-0.00289731984958,0.0552307367325,"(1.2184696791468346e-07, 0.0, 0.0, 0.0, 1.2184696791468346e-07, 0.0, 0.0, 0.0, 1.2184696791468346e-07)",0.0,0.0,0.0,"(-1.0, 0.0, 0.0, 0.0, 8.999999999999999e-08, 0.0, 0.0, 0.0, 8.999999999999999e-08)"
1970/01/01/01:00:10.946000,23,10,946000000,base_link,0.000671534936368,0.000297038331903,-0.690626644288,-0.723211136784,"(1.0, 0.0, 0.0, 0.0, 1.0, 0.0, 0.0, 0.0, 1.0)",0.00154829083476,0.000631938048173,0.0462602004409,"(1.2184696791468346e-07, 0.0, 0.0, 0.0, 1.2184696791468346e-07, 0.0, 0.0, 0.0, 1.2184696791468346e-07)",0.0,0.0,0.0,"(-1.0, 0.0, 0.0, 0.0, 8.999999999999999e-08, 0.0, 0.0, 0.0, 8.999999999999999e-08)"
1970/01/01/01:00:10.966000,24,10,966000000,base_link,0.000701346670018,0.000270156874359,-0.691004206294,-0.722850349224,"(1.0, 0.0, 0.0, 0.0, 1.0, 0.0, 0.0, 0.0, 1.0)",-0.000399545184337,0.00273815309629,0.0553855113685,"(1.2184696791468346e-07, 0.0, 0.0, 0.0, 1.2184696791468346e-07, 0.0, 0.0, 0.0, 1.2184696791468346e-07)",0.0,0.0,0.0,"(-1.0, 0.0, 0.0, 0.0, 8.999999999999999e-08, 0.0, 0.0, 0.0, 8.999999999999999e-08)"
1970/01/01/01:00:10.986000,25,10,986000000,base_link,0.000689227557755,0.000254034799305,-0.691384979363,-0.722486266307,"(1.0, 0.0, 0.0, 0.0, 1.0, 0.0, 0.0, 0.0, 1.0)",0.00441081589088,-0.000489195226692,0.0540911369026,"(1.2184696791468346e-07, 0.0, 0.0, 0.0, 1.2184696791468346e-07, 0.0, 0.0, 0.0, 1.2184696791468346e-07)",0.0,0.0,0.0,"(-1.0, 0.0, 0.0, 0.0, 8.999999999999999e-08, 0.0, 0.0, 0.0, 8.999999999999999e-08)"
1970/01/01/01:00:11.006000,26,11,6000000,base_link,0.000764876767396,0.000313225458806,-0.691833366513,-0.722056676651,"(1.0, 0.0, 0.0, 0.0, 1.0, 0.0, 0.0, 0.0, 1.0)",-0.0113946199417,-0.00252136355266,0.0514470115304,"(1.2184696791468346e-07, 0.0, 0.0, 0.0, 1.2184696791468346e-07, 0.0, 0.0, 0.0, 1.2184696791468346e-07)",0.0,0.0,0.0,"(-1.0, 0.0, 0.0, 0.0, 8.999999999999999e-08, 0.0, 0.0, 0.0, 8.999999999999999e-08)"
1970/01/01/01:00:11.026000,27,11,26000000,base_link,0.000801457350771,0.000335794190685,-0.692146450426,-0.721756658261,"(1.0, 0.0, 0.0, 0.0, 1.0, 0.0, 0.0, 0.0, 1.0)",-0.00457590818405,0.00229720235802,0.0422180332243,"(1.2184696791468346e-07, 0.0, 0.0, 0.0, 1.2184696791468346e-07, 0.0, 0.0, 0.0, 1.2184696791468346e-07)",0.0,0.0,0.0,"(-1.0, 0.0, 0.0, 0.0, 8.999999999999999e-08, 0.0, 0.0, 0.0, 8.999999999999999e-08)"
1970/01/01/01:00:11.046000,28,11,46000000,base_link,0.000828540117139,0.000315262542765,-0.692391799085,-0.721521171965,"(1.0, 0.0, 0.0, 0.0, 1.0, 0.0, 0.0, 0.0, 1.0)",-0.000854131067172,0.00343061494641,0.0432324558496,"(1.2184696791468346e-07, 0.0, 0.0, 0.0, 1.2184696791468346e-07, 0.0, 0.0, 0.0, 1.2184696791468346e-07)",0.0,0.0,0.0,"(-1.0, 0.0, 0.0, 0.0, 8.999999999999999e-08, 0.0, 0.0, 0.0, 8.999999999999999e-08)"
1970/01/01/01:00:11.066000,29,11,66000000,base_link,0.000782882629594,0.000286602953311,-0.692653077935,-0.72127051412,"(1.0, 0.0, 0.0, 0.0, 1.0, 0.0, 0.0, 0.0, 1.0)",0.0094862934202,-0.00157463736832,0.0368189960718,"(1.2184696791468346e-07, 0.0, 0.0, 0.0, 1.2184696791468346e-07, 0.0, 0.0, 0.0, 1.2184696791468346e-07)",0.0,0.0,0.0,"(-1.0, 0.0, 0.0, 0.0, 8.999999999999999e-08, 0.0, 0.0, 0.0, 8.999999999999999e-08)"
1970/01/01/01:00:11.086000,30,11,86000000,base_link,0.000762703220667,0.000228978950615,-0.6928964694,-0.721036732137,"(1.0, 0.0, 0.0, 0.0, 1.0, 0.0, 0.0, 0.0, 1.0)",0.00683346483856,0.00858874712139,0.0342387035489,"(1.2184696791468346e-07, 0.0, 0.0, 0.0, 1.2184696791468346e-07, 0.0, 0.0, 0.0, 1.2184696791468346e-07)",0.0,0.0,0.0,"(-1.0, 0.0, 0.0, 0.0, 8.999999999999999e-08, 0.0, 0.0, 0.0, 8.999999999999999e-08)"
1970/01/01/01:00:11.106000,31,11,106000000,base_link,0.000726913713882,0.000140344292832,-0.693075415699,-0.720864782214,"(1.0, 0.0, 0.0, 0.0, 1.0, 0.0, 0.0, 0.0, 1.0)",0.0052501372993,-0.00110531691462,0.0114370845258,"(1.2184696791468346e-07, 0.0, 0.0, 0.0, 1.2184696791468346e-07, 0.0, 0.0, 0.0, 1.2184696791468346e-07)",0.0,0.0,0.0,"(-1.0, 0.0, 0.0, 0.0, 8.999999999999999e-08, 0.0, 0.0, 0.0, 8.999999999999999e-08)"
1970/01/01/01:00:11.126000,32,11,126000000,base_link,0.000659553850918,0.000173648596701,-0.693229011986,-0.720717086486,"(1.0, 0.0, 0.0, 0.0, 1.0, 0.0, 0.0, 0.0, 1.0)",0.00468833371997,-0.00702975224704,0.0198333226144,"(1.2184696791468346e-07, 0.0, 0.0, 0.0, 1.2184696791468346e-07, 0.0, 0.0, 0.0, 1.2184696791468346e-07)",0.0,0.0,0.0,"(-1.0, 0.0, 0.0, 0.0, 8.999999999999999e-08, 0.0, 0.0, 0.0, 8.999999999999999e-08)"
1970/01/01/01:00:11.145000,33,11,146000000,base_link,0.000647739233173,7.10663778297e-05,-0.693379630335,-0.720572284403,"(1.0, 0.0, 0.0, 0.0, 1.0, 0.0, 0.0, 0.0, 1.0)",0.0113714355975,0.0106151793152,0.0246659331024,"(1.2184696791468346e-07, 0.0, 0.0, 0.0, 1.2184696791468346e-07, 0.0, 0.0, 0.0, 1.2184696791468346e-07)",0.0,0.0,0.0,"(-1.0, 0.0, 0.0, 0.0, 8.999999999999999e-08, 0.0, 0.0, 0.0, 8.999999999999999e-08)"
1970/01/01/01:00:11.166000,34,11,166000000,base_link,0.000634999483871,0.000109988210408,-0.693628581232,-0.720332521518,"(1.0, 0.0, 0.0, 0.0, 1.0, 0.0, 0.0, 0.0, 1.0)",-0.0030114161782,-0.00154344388284,0.0293908752501,"(1.2184696791468346e-07, 0.0, 0.0, 0.0, 1.2184696791468346e-07, 0.0, 0.0, 0.0, 1.2184696791468346e-07)",0.0,0.0,0.0,"(-1.0, 0.0, 0.0, 0.0, 8.999999999999999e-08, 0.0, 0.0, 0.0, 8.999999999999999e-08)"
1970/01/01/01:00:11.186000,35,11,186000000,base_link,0.000628242096936,9.11189963592e-05,-0.693821694141,-0.720146573574,"(1.0, 0.0, 0.0, 0.0, 1.0, 0.0, 0.0, 0.0, 1.0)",0.00450344244018,0.00254872464575,0.0264280959964,"(1.2184696791468346e-07, 0.0, 0.0, 0.0, 1.2184696791468346e-07, 0.0, 0.0, 0.0, 1.2184696791468346e-07)",0.0,0.0,0.0,"(-1.0, 0.0, 0.0, 0.0, 8.999999999999999e-08, 0.0, 0.0, 0.0, 8.999999999999999e-08)"
1970/01/01/01:00:11.206000,36,11,206000000,base_link,0.000631707790307,0.000134891194454,-0.693975652627,-0.719998178472,"(1.0, 0.0, 0.0, 0.0, 1.0, 0.0, 0.0, 0.0, 1.0)",-0.0038973132614,-0.000568516552448,0.0144244153053,"(1.2184696791468346e-07, 0.0, 0.0, 0.0, 1.2184696791468346e-07, 0.0, 0.0, 0.0, 1.2184696791468346e-07)",0.0,0.0,0.0,"(-1.0, 0.0, 0.0, 0.0, 8.999999999999999e-08, 0.0, 0.0, 0.0, 8.999999999999999e-08)"
1970/01/01/01:00:11.226000,37,11,226000000,base_link,0.000609123747268,0.000144439431276,-0.694129111937,-0.71985036684,"(1.0, 0.0, 0.0, 0.0, 1.0, 0.0, 0.0, 0.0, 1.0)",0.000840445805807,-0.00590418372303,0.0194538515061,"(1.2184696791468346e-07, 0.0, 0.0, 0.0, 1.2184696791468346e-07, 0.0, 0.0, 0.0, 1.2184696791468346e-07)",0.0,0.0,0.0,"(-1.0, 0.0, 0.0, 0.0, 8.999999999999999e-08, 0.0, 0.0, 0.0, 8.999999999999999e-08)"
1970/01/01/01:00:11.246000,38,11,246000000,base_link,0.000566731734985,8.79117611282e-05,-0.69430850868,-0.719677292123,"(1.0, 0.0, 0.0, 0.0, 1.0, 0.0, 0.0, 0.0, 1.0)",0.00572872301564,0.00242061028257,0.0135248228908,"(1.2184696791468346e-07, 0.0, 0.0, 0.0, 1.2184696791468346e-07, 0.0, 0.0, 0.0, 1.2184696791468346e-07)",0.0,0.0,0.0,"(-1.0, 0.0, 0.0, 0.0, 8.999999999999999e-08, 0.0, 0.0, 0.0, 8.999999999999999e-08)"
1970/01/01/01:00:11.266000,39,11,266000000,base_link,0.000549604700432,-2.13187320838e-06,-0.694525503047,-0.719467968483,"(1.0, 0.0, 0.0, 0.0, 1.0, 0.0, 0.0, 0.0, 1.0)",0.01038582623,0.00530867045745,0.0349732711911,"(1.2184696791468346e-07, 0.0, 0.0, 0.0, 1.2184696791468346e-07, 0.0, 0.0, 0.0, 1.2184696791468346e-07)",0.0,0.0,0.0,"(-1.0, 0.0, 0.0, 0.0, 8.999999999999999e-08, 0.0, 0.0, 0.0, 8.999999999999999e-08)"
1970/01/01/01:00:11.286000,40,11,286000000,base_link,0.000486872512043,-4.37749145912e-05,-0.694662972896,-0.719335219081,"(1.0, 0.0, 0.0, 0.0, 1.0, 0.0, 0.0, 0.0, 1.0)",0.00782632082701,0.001327718026,0.00986404158175,"(1.2184696791468346e-07, 0.0, 0.0, 0.0, 1.2184696791468346e-07, 0.0, 0.0, 0.0, 1.2184696791468346e-07)",0.0,0.0,0.0,"(-1.0, 0.0, 0.0, 0.0, 8.999999999999999e-08, 0.0, 0.0, 0.0, 8.999999999999999e-08)"
1970/01/01/01:00:11.306000,41,11,306000000,base_link,0.000538438707868,-1.12580653181e-05,-0.694833862562,-0.719170145681,"(1.0, 0.0, 0.0, 0.0, 1.0, 0.0, 0.0, 0.0, 1.0)",-0.00281545217149,-0.0037730592303,0.0209882743657,"(1.2184696791468346e-07, 0.0, 0.0, 0.0, 1.2184696791468346e-07, 0.0, 0.0, 0.0, 1.2184696791468346e-07)",0.0,0.0,0.0,"(-1.0, 0.0, 0.0, 0.0, 8.999999999999999e-08, 0.0, 0.0, 0.0, 8.999999999999999e-08)"
1970/01/01/01:00:11.326000,42,11,326000000,base_link,0.00046252330219,-5.37520902618e-05,-0.695006233952,-0.719003590555,"(1.0, 0.0, 0.0, 0.0, 1.0, 0.0, 0.0, 0.0, 1.0)",0.0117412209511,-0.00430777296424,0.0284684430808,"(1.2184696791468346e-07, 0.0, 0.0, 0.0, 1.2184696791468346e-07, 0.0, 0.0, 0.0, 1.2184696791468346e-07)",0.0,0.0,0.0,"(-1.0, 0.0, 0.0, 0.0, 8.999999999999999e-08, 0.0, 0.0, 0.0, 8.999999999999999e-08)"
1970/01/01/01:00:11.346000,43,11,346000000,base_link,0.000424487479508,-9.60239181726e-05,-0.695129566168,-0.718884388731,"(1.0, 0.0, 0.0, 0.0, 1.0, 0.0, 0.0, 0.0, 1.0)",0.00976690929383,-3.71107889805e-05,0.0117228804156,"(1.2184696791468346e-07, 0.0, 0.0, 0.0, 1.2184696791468346e-07, 0.0, 0.0, 0.0, 1.2184696791468346e-07)",0.0,0.0,0.0,"(-1.0, 0.0, 0.0, 0.0, 8.999999999999999e-08, 0.0, 0.0, 0.0, 8.999999999999999e-08)"
1970/01/01/01:00:11.366000,44,11,366000000,base_link,0.000404936136826,-0.000102895727216,-0.695321946775,-0.718698414445,"(1.0, 0.0, 0.0, 0.0, 1.0, 0.0, 0.0, 0.0, 1.0)",0.00115317490418,0.000654713832773,0.0223755463958,"(1.2184696791468346e-07, 0.0, 0.0, 0.0, 1.2184696791468346e-07, 0.0, 0.0, 0.0, 1.2184696791468346e-07)",0.0,0.0,0.0,"(-1.0, 0.0, 0.0, 0.0, 8.999999999999999e-08, 0.0, 0.0, 0.0, 8.999999999999999e-08)"
1970/01/01/01:00:11.386000,45,11,386000000,base_link,0.000369191812369,-0.000164409145225,-0.695509043221,-0.718517387145,"(1.0, 0.0, 0.0, 0.0, 1.0, 0.0, 0.0, 0.0, 1.0)",0.0118507733569,-0.000781723938417,0.0270321685821,"(1.2184696791468346e-07, 0.0, 0.0, 0.0, 1.2184696791468346e-07, 0.0, 0.0, 0.0, 1.2184696791468346e-07)",0.0,0.0,0.0,"(-1.0, 0.0, 0.0, 0.0, 8.999999999999999e-08, 0.0, 0.0, 0.0, 8.999999999999999e-08)"
1970/01/01/01:00:11.406000,46,11,406000000,base_link,0.000301225844075,-0.000255866054663,-0.695675142634,-0.718356513941,"(1.0, 0.0, 0.0, 0.0, 1.0, 0.0, 0.0, 0.0, 1.0)",0.00470520462841,-0.000659085344523,0.0111870840192,"(1.2184696791468346e-07, 0.0, 0.0, 0.0, 1.2184696791468346e-07, 0.0, 0.0, 0.0, 1.2184696791468346e-07)",0.0,0.0,0.0,"(-1.0, 0.0, 0.0, 0.0, 8.999999999999999e-08, 0.0, 0.0, 0.0, 8.999999999999999e-08)"
1970/01/01/01:00:11.426000,47,11,426000000,base_link,0.000275853134508,-0.000260905749796,-0.695788823221,-0.718246457983,"(1.0, 0.0, 0.0, 0.0, 1.0, 0.0, 0.0, 0.0, 1.0)",0.00189245748334,-0.00364822987467,0.0176803991199,"(1.2184696791468346e-07, 0.0, 0.0, 0.0, 1.2184696791468346e-07, 0.0, 0.0, 0.0, 1.2184696791468346e-07)",0.0,0.0,0.0,"(-1.0, 0.0, 0.0, 0.0, 8.999999999999999e-08, 0.0, 0.0, 0.0, 8.999999999999999e-08)"
1970/01/01/01:00:11.446000,48,11,446000000,base_link,0.000275184293168,-0.000213649878908,-0.695947253225,-0.718092917014,"(1.0, 0.0, 0.0, 0.0, 1.0, 0.0, 0.0, 0.0, 1.0)",-0.00536929257214,-0.00330622587353,0.0184320285916,"(1.2184696791468346e-07, 0.0, 0.0, 0.0, 1.2184696791468346e-07, 0.0, 0.0, 0.0, 1.2184696791468346e-07)",0.0,0.0,0.0,"(-1.0, 0.0, 0.0, 0.0, 8.999999999999999e-08, 0.0, 0.0, 0.0, 8.999999999999999e-08)"
1970/01/01/01:00:11.466000,49,11,466000000,base_link,0.000287563134356,-0.000226889406898,-0.69604797629,-0.717995228521,"(1.0, 0.0, 0.0, 0.0, 1.0, 0.0, 0.0, 0.0, 1.0)",0.0020710953977,0.00266514369287,0.00934604927897,"(1.2184696791468346e-07, 0.0, 0.0, 0.0, 1.2184696791468346e-07, 0.0, 0.0, 0.0, 1.2184696791468346e-07)",0.0,0.0,0.0,"(-1.0, 0.0, 0.0, 0.0, 8.999999999999999e-08, 0.0, 0.0, 0.0, 8.999999999999999e-08)"
1970/01/01/01:00:11.486000,50,11,486000000,base_link,0.00019500966085,-0.00014252932293,-0.696132248255,-0.717913653955,"(1.0, 0.0, 0.0, 0.0, 1.0, 0.0, 0.0, 0.0, 1.0)",0.00346326548606,-0.00787839666009,0.00194490584545,"(1.2184696791468346e-07, 0.0, 0.0, 0.0, 1.2184696791468346e-07, 0.0, 0.0, 0.0, 1.2184696791468346e-07)",0.0,0.0,0.0,"(-1.0, 0.0, 0.0, 0.0, 8.999999999999999e-08, 0.0, 0.0, 0.0, 8.999999999999999e-08)"
1970/01/01/01:00:11.506000,51,11,506000000,base_link,0.000220304261507,-0.000192018810224,-0.696247194565,-0.717802079393,"(1.0, 0.0, 0.0, 0.0, 1.0, 0.0, 0.0, 0.0, 1.0)",0.00220430130139,0.00840700604022,0.016424831003,"(1.2184696791468346e-07, 0.0, 0.0, 0.0, 1.2184696791468346e-07, 0.0, 0.0, 0.0, 1.2184696791468346e-07)",0.0,0.0,0.0,"(-1.0, 0.0, 0.0, 0.0, 8.999999999999999e-08, 0.0, 0.0, 0.0, 8.999999999999999e-08)"
1970/01/01/01:00:11.526000,52,11,526000000,base_link,0.000209594404909,-0.000304477579937,-0.696246508361,-0.717802681303,"(1.0, 0.0, 0.0, 0.0, 1.0, 0.0, 0.0, 0.0, 1.0)",0.00976411718875,0.00823938287795,-0.00704698031768,"(1.2184696791468346e-07, 0.0, 0.0, 0.0, 1.2184696791468346e-07, 0.0, 0.0, 0.0, 1.2184696791468346e-07)",0.0,0.0,0.0,"(-1.0, 0.0, 0.0, 0.0, 8.999999999999999e-08, 0.0, 0.0, 0.0, 8.999999999999999e-08)"
1970/01/01/01:00:11.547000,53,11,547000000,base_link,0.000152682237377,-0.000297680958155,-0.696322649936,-0.717728899952,"(1.0, 0.0, 0.0, 0.0, 1.0, 0.0, 0.0, 0.0, 1.0)",0.00500105507672,-0.00605350639671,0.0103736724705,"(1.2184696791468346e-07, 0.0, 0.0, 0.0, 1.2184696791468346e-07, 0.0, 0.0, 0.0, 1.2184696791468346e-07)",0.0,0.0,0.0,"(-1.0, 0.0, 0.0, 0.0, 8.999999999999999e-08, 0.0, 0.0, 0.0, 8.999999999999999e-08)"
1970/01/01/01:00:11.566000,54,11,566000000,base_link,0.000133068163186,-0.00026435163474,-0.696365327571,-0.717687486722,"(1.0, 0.0, 0.0, 0.0, 1.0, 0.0, 0.0, 0.0, 1.0)",-0.000182443720405,-0.00445649633184,0.00524165993556,"(1.2184696791468346e-07, 0.0, 0.0, 0.0, 1.2184696791468346e-07, 0.0, 0.0, 0.0, 1.2184696791468346e-07)",0.0,0.0,0.0,"(-1.0, 0.0, 0.0, 0.0, 8.999999999999999e-08, 0.0, 0.0, 0.0, 8.999999999999999e-08)"
1970/01/01/01:00:11.586000,55,11,586000000,base_link,9.3756539142e-05,-0.000286370620866,-0.696428075009,-0.717626593745,"(1.0, 0.0, 0.0, 0.0, 1.0, 0.0, 0.0, 0.0, 1.0)",0.00557036604732,0.000159733986948,0.00836487021297,"(1.2184696791468346e-07, 0.0, 0.0, 0.0, 1.2184696791468346e-07, 0.0, 0.0, 0.0, 1.2184696791468346e-07)",0.0,0.0,0.0,"(-1.0, 0.0, 0.0, 0.0, 8.999999999999999e-08, 0.0, 0.0, 0.0, 8.999999999999999e-08)"
1970/01/01/01:00:11.606000,56,11,606000000,base_link,5.35037263746e-05,-0.000303498313964,-0.696465766145,-0.71759008272,"(1.0, 0.0, 0.0, 0.0, 1.0, 0.0, 0.0, 0.0, 1.0)",0.00718833273277,0.00182062713429,0.0051033757627,"(1.2184696791468346e-07, 0.0, 0.0, 0.0, 1.2184696791468346e-07, 0.0, 0.0, 0.0, 1.2184696791468346e-07)",0.0,0.0,0.0,"(-1.0, 0.0, 0.0, 0.0, 8.999999999999999e-08, 0.0, 0.0, 0.0, 8.999999999999999e-08)"
1970/01/01/01:00:11.626000,57,11,626000000,base_link,6.79892977469e-05,-0.000248383365843,-0.696542191553,-0.717515848949,"(1.0, 0.0, 0.0, 0.0, 1.0, 0.0, 0.0, 0.0, 1.0)",0.000495753367431,-0.00228222087026,0.00395635422319,"(1.2184696791468346e-07, 0.0, 0.0, 0.0, 1.2184696791468346e-07, 0.0, 0.0, 0.0, 1.2184696791468346e-07)",0.0,0.0,0.0,"(-1.0, 0.0, 0.0, 0.0, 8.999999999999999e-08, 0.0, 0.0, 0.0, 8.999999999999999e-08)"
1970/01/01/01:00:11.652000,58,11,652000000,base_link,1.51865302625e-05,-0.000266440316689,-0.69661333675,-0.717446811094,"(1.0, 0.0, 0.0, 0.0, 1.0, 0.0, 0.0, 0.0, 1.0)",0.00554168224335,-0.00587702216581,0.0140924286097,"(1.2184696791468346e-07, 0.0, 0.0, 0.0, 1.2184696791468346e-07, 0.0, 0.0, 0.0, 1.2184696791468346e-07)",0.0,0.0,0.0,"(-1.0, 0.0, 0.0, 0.0, 8.999999999999999e-08, 0.0, 0.0, 0.0, 8.999999999999999e-08)"
1970/01/01/01:00:11.667000,59,11,666000000,base_link,-6.43903005618e-05,-0.000280826591898,-0.696647935361,-0.717413224007,"(1.0, 0.0, 0.0, 0.0, 1.0, 0.0, 0.0, 0.0, 1.0)",0.00378620997071,0.00149548298214,0.00499559473246,"(1.2184696791468346e-07, 0.0, 0.0, 0.0, 1.2184696791468346e-07, 0.0, 0.0, 0.0, 1.2184696791468346e-07)",0.0,0.0,0.0,"(-1.0, 0.0, 0.0, 0.0, 8.999999999999999e-08, 0.0, 0.0, 0.0, 8.999999999999999e-08)"
1970/01/01/01:00:11.690000,60,11,690000000,base_link,-7.30286758264e-06,-0.000383779262634,-0.696647918239,-0.717413156836,"(1.0, 0.0, 0.0, 0.0, 1.0, 0.0, 0.0, 0.0, 1.0)",0.00582586741075,0.00949311628938,0.00177001592238,"(1.2184696791468346e-07, 0.0, 0.0, 0.0, 1.2184696791468346e-07, 0.0, 0.0, 0.0, 1.2184696791468346e-07)",0.0,0.0,0.0,"(-1.0, 0.0, 0.0, 0.0, 8.999999999999999e-08, 0.0, 0.0, 0.0, 8.999999999999999e-08)"
1970/01/01/01:00:11.707000,61,11,706000000,base_link,1.95380277352e-05,-0.000321641184289,-0.696676491168,-0.717385426844,"(1.0, 0.0, 0.0, 0.0, 1.0, 0.0, 0.0, 0.0, 1.0)",-0.00294880429283,-0.00817223824561,0.00633523520082,"(1.2184696791468346e-07, 0.0, 0.0, 0.0, 1.2184696791468346e-07, 0.0, 0.0, 0.0, 1.2184696791468346e-07)",0.0,0.0,0.0,"(-1.0, 0.0, 0.0, 0.0, 8.999999999999999e-08, 0.0, 0.0, 0.0, 8.999999999999999e-08)"
1970/01/01/01:00:11.730000,62,11,730000000,base_link,3.07420512446e-05,-0.000249566965829,-0.696726765115,-0.71733658589,"(1.0, 0.0, 0.0, 0.0, 1.0, 0.0, 0.0, 0.0, 1.0)",-0.00879334658384,-0.00423940364271,0.0124869141728,"(1.2184696791468346e-07, 0.0, 0.0, 0.0, 1.2184696791468346e-07, 0.0, 0.0, 0.0, 1.2184696791468346e-07)",0.0,0.0,0.0,"(-1.0, 0.0, 0.0, 0.0, 8.999999999999999e-08, 0.0, 0.0, 0.0, 8.999999999999999e-08)"
1970/01/01/01:00:11.746000,63,11,746000000,base_link,-5.28413026269e-06,-0.000212438236759,-0.696751733171,-0.717312460771,"(1.0, 0.0, 0.0, 0.0, 1.0, 0.0, 0.0, 0.0, 1.0)",0.00168652669527,-0.00691132014617,0.00896346755326,"(1.2184696791468346e-07, 0.0, 0.0, 0.0, 1.2184696791468346e-07, 0.0, 0.0, 0.0, 1.2184696791468346e-07)",0.0,0.0,0.0,"(-1.0, 0.0, 0.0, 0.0, 8.999999999999999e-08, 0.0, 0.0, 0.0, 8.999999999999999e-08)"
1970/01/01/01:00:11.766000,64,11,766000000,base_link,3.02386659966e-05,-0.000176069210807,-0.696737199094,-0.71732657338,"(1.0, 0.0, 0.0, 0.0, 1.0, 0.0, 0.0, 0.0, 1.0)",-0.00297272345051,0.00305271800607,0.00336409755982,"(1.2184696791468346e-07, 0.0, 0.0, 0.0, 1.2184696791468346e-07, 0.0, 0.0, 0.0, 1.2184696791468346e-07)",0.0,0.0,0.0,"(-1.0, 0.0, 0.0, 0.0, 8.999999999999999e-08, 0.0, 0.0, 0.0, 8.999999999999999e-08)"
1970/01/01/01:00:11.786000,65,11,786000000,base_link,3.5896124112e-05,-0.000146966251118,-0.696748597841,-0.717315511808,"(1.0, 0.0, 0.0, 0.0, 1.0, 0.0, 0.0, 0.0, 1.0)",0.000690163578838,-0.00469666486606,0.0079112732783,"(1.2184696791468346e-07, 0.0, 0.0, 0.0, 1.2184696791468346e-07, 0.0, 0.0, 0.0, 1.2184696791468346e-07)",0.0,0.0,0.0,"(-1.0, 0.0, 0.0, 0.0, 8.999999999999999e-08, 0.0, 0.0, 0.0, 8.999999999999999e-08)"
1970/01/01/01:00:11.806000,66,11,806000000,base_link,-7.77645883658e-06,-0.000153735419826,-0.696700682801,-0.717361993855,"(1.0, 0.0, 0.0, 0.0, 1.0, 0.0, 0.0, 0.0, 1.0)",0.00380935915746,-0.00210535316728,-0.00567108951509,"(1.2184696791468346e-07, 0.0, 0.0, 0.0, 1.2184696791468346e-07, 0.0, 0.0, 0.0, 1.2184696791468346e-07)",0.0,0.0,0.0,"(-1.0, 0.0, 0.0, 0.0, 8.999999999999999e-08, 0.0, 0.0, 0.0, 8.999999999999999e-08)"
1970/01/01/01:00:11.826000,67,11,826000000,base_link,3.32241054952e-05,-0.000184386062006,-0.696701786521,-0.717360890134,"(1.0, 0.0, 0.0, 0.0, 1.0, 0.0, 0.0, 0.0, 1.0)",0.0023897245992,0.00174545007758,0.00590533623472,"(1.2184696791468346e-07, 0.0, 0.0, 0.0, 1.2184696791468346e-07, 0.0, 0.0, 0.0, 1.2184696791468346e-07)",0.0,0.0,0.0,"(-1.0, 0.0, 0.0, 0.0, 8.999999999999999e-08, 0.0, 0.0, 0.0, 8.999999999999999e-08)"
1970/01/01/01:00:11.846000,68,11,846000000,base_link,7.35277753912e-05,-0.000211923651109,-0.696725438806,-0.717337912199,"(1.0, 0.0, 0.0, 0.0, 1.0, 0.0, 0.0, 0.0, 1.0)",-0.0039592012763,0.00351635878906,0.00748839695007,"(1.2184696791468346e-07, 0.0, 0.0, 0.0, 1.2184696791468346e-07, 0.0, 0.0, 0.0, 1.2184696791468346e-07)",0.0,0.0,0.0,"(-1.0, 0.0, 0.0, 0.0, 8.999999999999999e-08, 0.0, 0.0, 0.0, 8.999999999999999e-08)"
1970/01/01/01:00:11.866000,69,11,866000000,base_link,6.9181129548e-07,-0.000233632401034,-0.696713343319,-0.717349754805,"(1.0, 0.0, 0.0, 0.0, 1.0, 0.0, 0.0, 0.0, 1.0)",0.00481198681518,-0.00133893638849,0.00356730469503,"(1.2184696791468346e-07, 0.0, 0.0, 0.0, 1.2184696791468346e-07, 0.0, 0.0, 0.0, 1.2184696791468346e-07)",0.0,0.0,0.0,"(-1.0, 0.0, 0.0, 0.0, 8.999999999999999e-08, 0.0, 0.0, 0.0, 8.999999999999999e-08)"
1970/01/01/01:00:11.886000,70,11,886000000,base_link,1.85147730476e-06,-0.000210078599758,-0.696715517833,-0.717347664585,"(1.0, 0.0, 0.0, 0.0, 1.0, 0.0, 0.0, 0.0, 1.0)",-0.00403451174498,-0.00270541151986,0.0018930863589,"(1.2184696791468346e-07, 0.0, 0.0, 0.0, 1.2184696791468346e-07, 0.0, 0.0, 0.0, 1.2184696791468346e-07)",0.0,0.0,0.0,"(-1.0, 0.0, 0.0, 0.0, 8.999999999999999e-08, 0.0, 0.0, 0.0, 8.999999999999999e-08)"
1970/01/01/01:00:11.906000,71,11,906000000,base_link,1.62740239097e-05,-0.000227634789245,-0.696670123702,-0.717391625723,"(1.0, 0.0, 0.0, 0.0, 1.0, 0.0, 0.0, 0.0, 1.0)",0.00286039197817,-0.000160791387316,-0.00312581169419,"(1.2184696791468346e-07, 0.0, 0.0, 0.0, 1.2184696791468346e-07, 0.0, 0.0, 0.0, 1.2184696791468346e-07)",0.0,0.0,0.0,"(-1.0, 0.0, 0.0, 0.0, 8.999999999999999e-08, 0.0, 0.0, 0.0, 8.999999999999999e-08)"
1970/01/01/01:00:11.926000,72,11,926000000,base_link,8.34568773128e-05,-0.000236227668346,-0.696680551095,-0.717381535504,"(1.0, 0.0, 0.0, 0.0, 1.0, 0.0, 0.0, 0.0, 1.0)",-0.00527012627572,0.00617654528469,0.00456164218485,"(1.2184696791468346e-07, 0.0, 0.0, 0.0, 1.2184696791468346e-07, 0.0, 0.0, 0.0, 1.2184696791468346e-07)",0.0,0.0,0.0,"(-1.0, 0.0, 0.0, 0.0, 8.999999999999999e-08, 0.0, 0.0, 0.0, 8.999999999999999e-08)"
1970/01/01/01:00:11.946000,73,11,946000000,base_link,9.37096127009e-05,-0.000176316067244,-0.696654393707,-0.717406934249,"(1.0, 0.0, 0.0, 0.0, 1.0, 0.0, 0.0, 0.0, 1.0)",-0.00417101709172,-0.00379473646171,-0.00210420321673,"(1.2184696791468346e-07, 0.0, 0.0, 0.0, 1.2184696791468346e-07, 0.0, 0.0, 0.0, 1.2184696791468346e-07)",0.0,0.0,0.0,"(-1.0, 0.0, 0.0, 0.0, 8.999999999999999e-08, 0.0, 0.0, 0.0, 8.999999999999999e-08)"
1970/01/01/01:00:11.966000,74,11,966000000,base_link,6.03371957798e-05,-0.000191742199665,-0.696629292625,-0.717431360982,"(1.0, 0.0, 0.0, 0.0, 1.0, 0.0, 0.0, 0.0, 1.0)",0.00391666870564,-0.00165236042812,-0.000512240629178,"(1.2184696791468346e-07, 0.0, 0.0, 0.0, 1.2184696791468346e-07, 0.0, 0.0, 0.0, 1.2184696791468346e-07)",0.0,0.0,0.0,"(-1.0, 0.0, 0.0, 0.0, 8.999999999999999e-08, 0.0, 0.0, 0.0, 8.999999999999999e-08)"
1970/01/01/01:00:11.986000,75,11,986000000,base_link,-1.38190059979e-05,-0.000176531678832,-0.696570163231,-0.717488804502,"(1.0, 0.0, 0.0, 0.0, 1.0, 0.0, 0.0, 0.0, 1.0)",0.00594433769584,-0.00593708176166,-0.0071091549471,"(1.2184696791468346e-07, 0.0, 0.0, 0.0, 1.2184696791468346e-07, 0.0, 0.0, 0.0, 1.2184696791468346e-07)",0.0,0.0,0.0,"(-1.0, 0.0, 0.0, 0.0, 8.999999999999999e-08, 0.0, 0.0, 0.0, 8.999999999999999e-08)"
1970/01/01/01:00:12.006000,76,12,6000000,base_link,-9.80027106522e-05,-0.0002105813882,-0.696553351906,-0.71750502577,"(1.0, 0.0, 0.0, 0.0, 1.0, 0.0, 0.0, 0.0, 1.0)",0.0105200726539,-0.0015677975025,1.78364243766e-05,"(1.2184696791468346e-07, 0.0, 0.0, 0.0, 1.2184696791468346e-07, 0.0, 0.0, 0.0, 1.2184696791468346e-07)",0.0,0.0,0.0,"(-1.0, 0.0, 0.0, 0.0, 8.999999999999999e-08, 0.0, 0.0, 0.0, 8.999999999999999e-08)"
1970/01/01/01:00:12.026000,77,12,26000000,base_link,-0.000103235042274,-0.000198520670314,-0.696571386806,-0.717487580926,"(1.0, 0.0, 0.0, 0.0, 1.0, 0.0, 0.0, 0.0, 1.0)",-0.000903331849258,-0.00383483199403,0.0071979383938,"(1.2184696791468346e-07, 0.0, 0.0, 0.0, 1.2184696791468346e-07, 0.0, 0.0, 0.0, 1.2184696791468346e-07)",0.0,0.0,0.0,"(-1.0, 0.0, 0.0, 0.0, 8.999999999999999e-08, 0.0, 0.0, 0.0, 8.999999999999999e-08)"
1970/01/01/01:00:12.046000,78,12,46000000,base_link,-4.68775055563e-05,-0.000117309782198,-0.696529275519,-0.717528343514,"(1.0, 0.0, 0.0, 0.0, 1.0, 0.0, 0.0, 0.0, 1.0)",-0.00471698725596,-0.000429476116551,-0.000875424244441,"(1.2184696791468346e-07, 0.0, 0.0, 0.0, 1.2184696791468346e-07, 0.0, 0.0, 0.0, 1.2184696791468346e-07)",0.0,0.0,0.0,"(-1.0, 0.0, 0.0, 0.0, 8.999999999999999e-08, 0.0, 0.0, 0.0, 8.999999999999999e-08)"
1970/01/01/01:00:12.066000,79,12,66000000,base_link,-1.0329934297e-05,-0.000137243849854,-0.696520944273,-0.717536590467,"(1.0, 0.0, 0.0, 0.0, 1.0, 0.0, 0.0, 0.0, 1.0)",-0.00184300122783,0.00107485509943,-0.00285994354635,"(1.2184696791468346e-07, 0.0, 0.0, 0.0, 1.2184696791468346e-07, 0.0, 0.0, 0.0, 1.2184696791468346e-07)",0.0,0.0,0.0,"(-1.0, 0.0, 0.0, 0.0, 8.999999999999999e-08, 0.0, 0.0, 0.0, 8.999999999999999e-08)"
1970/01/01/01:00:12.086000,80,12,86000000,base_link,3.16221239513e-05,-7.8765349644e-05,-0.696509182009,-0.717547846968,"(1.0, 0.0, 0.0, 0.0, 1.0, 0.0, 0.0, 0.0, 1.0)",-0.00760418782011,-0.00406878534704,0.000140952761285,"(1.2184696791468346e-07, 0.0, 0.0, 0.0, 1.2184696791468346e-07, 0.0, 0.0, 0.0, 1.2184696791468346e-07)",0.0,0.0,0.0,"(-1.0, 0.0, 0.0, 0.0, 8.999999999999999e-08, 0.0, 0.0, 0.0, 8.999999999999999e-08)"
1970/01/01/01:00:12.106000,81,12,106000000,base_link,4.86754426782e-05,-0.000115726098416,-0.696528073017,-0.717529546017,"(1.0, 0.0, 0.0, 0.0, 1.0, 0.0, 0.0, 0.0, 1.0)",0.00179068907164,0.00273310998455,0.0088482555002,"(1.2184696791468346e-07, 0.0, 0.0, 0.0, 1.2184696791468346e-07, 0.0, 0.0, 0.0, 1.2184696791468346e-07)",0.0,0.0,0.0,"(-1.0, 0.0, 0.0, 0.0, 8.999999999999999e-08, 0.0, 0.0, 0.0, 8.999999999999999e-08)"
1970/01/01/01:00:12.126000,82,12,126000000,base_link,2.9382311182e-05,-0.000146623113415,-0.696515600843,-0.71754176531,"(1.0, 0.0, 0.0, 0.0, 1.0, 0.0, 0.0, 0.0, 1.0)",-0.00630761543289,0.000396669842303,9.40155005082e-05,"(1.2184696791468346e-07, 0.0, 0.0, 0.0, 1.2184696791468346e-07, 0.0, 0.0, 0.0, 1.2184696791468346e-07)",0.0,0.0,0.0,"(-1.0, 0.0, 0.0, 0.0, 8.999999999999999e-08, 0.0, 0.0, 0.0, 8.999999999999999e-08)"
1970/01/01/01:00:12.146000,83,12,146000000,base_link,9.20727765313e-05,-0.000106055174882,-0.696508975885,-0.71754822168,"(1.0, 0.0, 0.0, 0.0, 1.0, 0.0, 0.0, 0.0, 1.0)",-0.00286390539259,0.0010737789562,0.00279442430474,"(1.2184696791468346e-07, 0.0, 0.0, 0.0, 1.2184696791468346e-07, 0.0, 0.0, 0.0, 1.2184696791468346e-07)",0.0,0.0,0.0,"(-1.0, 0.0, 0.0, 0.0, 8.999999999999999e-08, 0.0, 0.0, 0.0, 8.999999999999999e-08)"
1970/01/01/01:00:12.166000,84,12,166000000,base_link,5.71104473091e-05,-8.77995345969e-05,-0.696515462548,-0.717541819311,"(1.0, 0.0, 0.0, 0.0, 1.0, 0.0, 0.0, 0.0, 1.0)",0.00160043162759,-0.00573990261182,0.00172918732278,"(1.2184696791468346e-07, 0.0, 0.0, 0.0, 1.2184696791468346e-07, 0.0, 0.0, 0.0, 1.2184696791468346e-07)",0.0,0.0,0.0,"(-1.0, 0.0, 0.0, 0.0, 8.999999999999999e-08, 0.0, 0.0, 0.0, 8.999999999999999e-08)"
1970/01/01/01:00:12.187000,85,12,186000000,base_link,0.000117937685093,-0.000156863821362,-0.696464346324,-0.717591418249,"(1.0, 0.0, 0.0, 0.0, 1.0, 0.0, 0.0, 0.0, 1.0)",-0.00342929502949,0.0042264778167,-0.00366211868823,"(1.2184696791468346e-07, 0.0, 0.0, 0.0, 1.2184696791468346e-07, 0.0, 0.0, 0.0, 1.2184696791468346e-07)",0.0,0.0,0.0,"(-1.0, 0.0, 0.0, 0.0, 8.999999999999999e-08, 0.0, 0.0, 0.0, 8.999999999999999e-08)"
1970/01/01/01:00:12.205000,86,12,206000000,base_link,0.000165137667805,-0.000119447134703,-0.696470336444,-0.717585512422,"(1.0, 0.0, 0.0, 0.0, 1.0, 0.0, 0.0, 0.0, 1.0)",-0.00243708700873,-0.00573480734602,0.00681742932647,"(1.2184696791468346e-07, 0.0, 0.0, 0.0, 1.2184696791468346e-07, 0.0, 0.0, 0.0, 1.2184696791468346e-07)",0.0,0.0,0.0,"(-1.0, 0.0, 0.0, 0.0, 8.999999999999999e-08, 0.0, 0.0, 0.0, 8.999999999999999e-08)"
1970/01/01/01:00:12.226000,87,12,226000000,base_link,0.000112914114653,-0.000100570724254,-0.696475856364,-0.717580245383,"(1.0, 0.0, 0.0, 0.0, 1.0, 0.0, 0.0, 0.0, 1.0)",0.00599305983633,-0.00705648772418,-0.00192797044292,"(1.2184696791468346e-07, 0.0, 0.0, 0.0, 1.2184696791468346e-07, 0.0, 0.0, 0.0, 1.2184696791468346e-07)",0.0,0.0,0.0,"(-1.0, 0.0, 0.0, 0.0, 8.999999999999999e-08, 0.0, 0.0, 0.0, 8.999999999999999e-08)"
1970/01/01/01:00:12.246000,88,12,246000000,base_link,8.91133141697e-05,-3.75629285583e-05,-0.696500159291,-0.717556701099,"(1.0, 0.0, 0.0, 0.0, 1.0, 0.0, 0.0, 0.0, 1.0)",-0.0043450249359,-0.00892841164023,0.00148080452345,"(1.2184696791468346e-07, 0.0, 0.0, 0.0, 1.2184696791468346e-07, 0.0, 0.0, 0.0, 1.2184696791468346e-07)",0.0,0.0,0.0,"(-1.0, 0.0, 0.0, 0.0, 8.999999999999999e-08, 0.0, 0.0, 0.0, 8.999999999999999e-08)"
1970/01/01/01:00:12.266000,89,12,266000000,base_link,0.00012907118646,-7.43035331041e-05,-0.696510490537,-0.717546622734,"(1.0, 0.0, 0.0, 0.0, 1.0, 0.0, 0.0, 0.0, 1.0)",-0.00368758523837,0.0135903581977,0.0011640409939,"(1.2184696791468346e-07, 0.0, 0.0, 0.0, 1.2184696791468346e-07, 0.0, 0.0, 0.0, 1.2184696791468346e-07)",0.0,0.0,0.0,"(-1.0, 0.0, 0.0, 0.0, 8.999999999999999e-08, 0.0, 0.0, 0.0, 8.999999999999999e-08)"
1970/01/01/01:00:12.286000,90,12,286000000,base_link,9.56660222238e-05,-9.88742816071e-05,-0.696534489216,-0.717523382699,"(1.0, 0.0, 0.0, 0.0, 1.0, 0.0, 0.0, 0.0, 1.0)",0.00726232863963,-0.000871863099746,0.00233239494264,"(1.2184696791468346e-07, 0.0, 0.0, 0.0, 1.2184696791468346e-07, 0.0, 0.0, 0.0, 1.2184696791468346e-07)",0.0,0.0,0.0,"(-1.0, 0.0, 0.0, 0.0, 8.999999999999999e-08, 0.0, 0.0, 0.0, 8.999999999999999e-08)"
1970/01/01/01:00:12.306000,91,12,306000000,base_link,0.000143042446148,-0.000116880008592,-0.696556971267,-0.717501574997,"(1.0, 0.0, 0.0, 0.0, 1.0, 0.0, 0.0, 0.0, 1.0)",-0.000913802534342,0.00657908339053,0.00405468512326,"(1.2184696791468346e-07, 0.0, 0.0, 0.0, 1.2184696791468346e-07, 0.0, 0.0, 0.0, 1.2184696791468346e-07)",0.0,0.0,0.0,"(-1.0, 0.0, 0.0, 0.0, 8.999999999999999e-08, 0.0, 0.0, 0.0, 8.999999999999999e-08)"
1970/01/01/01:00:12.326000,92,12,326000000,base_link,0.000192561933231,-0.000106485062318,-0.696570569553,-0.717488313886,"(1.0, 0.0, 0.0, 0.0, 1.0, 0.0, 0.0, 0.0, 1.0)",-0.00209108530544,0.00144907261711,0.00363186467439,"(1.2184696791468346e-07, 0.0, 0.0, 0.0, 1.2184696791468346e-07, 0.0, 0.0, 0.0, 1.2184696791468346e-07)",0.0,0.0,0.0,"(-1.0, 0.0, 0.0, 0.0, 8.999999999999999e-08, 0.0, 0.0, 0.0, 8.999999999999999e-08)"
1970/01/01/01:00:12.346000,93,12,346000000,base_link,0.000193192551336,-0.000141762118578,-0.696637994632,-0.717422827562,"(1.0, 0.0, 0.0, 0.0, 1.0, 0.0, 0.0, 0.0, 1.0)",0.00162088079378,2.05895630643e-05,0.00685601402074,"(1.2184696791468346e-07, 0.0, 0.0, 0.0, 1.2184696791468346e-07, 0.0, 0.0, 0.0, 1.2184696791468346e-07)",0.0,0.0,0.0,"(-1.0, 0.0, 0.0, 0.0, 8.999999999999999e-08, 0.0, 0.0, 0.0, 8.999999999999999e-08)"
1970/01/01/01:00:12.366000,94,12,366000000,base_link,0.000279467432483,-0.000282110800716,-0.696691048953,-0.717371290527,"(1.0, 0.0, 0.0, 0.0, 1.0, 0.0, 0.0, 0.0, 1.0)",-0.00322661013342,0.020581971854,0.00172226200812,"(1.2184696791468346e-07, 0.0, 0.0, 0.0, 1.2184696791468346e-07, 0.0, 0.0, 0.0, 1.2184696791468346e-07)",0.0,0.0,0.0,"(-1.0, 0.0, 0.0, 0.0, 8.999999999999999e-08, 0.0, 0.0, 0.0, 8.999999999999999e-08)"
1970/01/01/01:00:12.386000,95,12,386000000,base_link,0.000319322024624,-0.000263666931095,-0.696734969262,-0.717328634624,"(1.0, 0.0, 0.0, 0.0, 1.0, 0.0, 0.0, 0.0, 1.0)",0.00076063798042,0.000383784528822,0.00382117205299,"(1.2184696791468346e-07, 0.0, 0.0, 0.0, 1.2184696791468346e-07, 0.0, 0.0, 0.0, 1.2184696791468346e-07)",0.0,0.0,0.0,"(-1.0, 0.0, 0.0, 0.0, 8.999999999999999e-08, 0.0, 0.0, 0.0, 8.999999999999999e-08)"
1970/01/01/01:00:12.406000,96,12,406000000,base_link,0.000318047411729,-0.000370880117264,-0.696760822402,-0.717303455833,"(1.0, 0.0, 0.0, 0.0, 1.0, 0.0, 0.0, 0.0, 1.0)",0.00843747053295,0.00216700648889,0.00571580138057,"(1.2184696791468346e-07, 0.0, 0.0, 0.0, 1.2184696791468346e-07, 0.0, 0.0, 0.0, 1.2184696791468346e-07)",0.0,0.0,0.0,"(-1.0, 0.0, 0.0, 0.0, 8.999999999999999e-08, 0.0, 0.0, 0.0, 8.999999999999999e-08)"
1970/01/01/01:00:12.426000,97,12,426000000,base_link,0.000301484330512,-0.000373492715101,-0.696789492138,-0.717275629035,"(1.0, 0.0, 0.0, 0.0, 1.0, 0.0, 0.0, 0.0, 1.0)",0.00243307696655,-0.00223748106509,0.00227165035903,"(1.2184696791468346e-07, 0.0, 0.0, 0.0, 1.2184696791468346e-07, 0.0, 0.0, 0.0, 1.2184696791468346e-07)",0.0,0.0,0.0,"(-1.0, 0.0, 0.0, 0.0, 8.999999999999999e-08, 0.0, 0.0, 0.0, 8.999999999999999e-08)"
1970/01/01/01:00:12.446000,98,12,446000000,base_link,0.00027327420283,-0.000380344474551,-0.696797347915,-0.717267857551,"(1.0, 0.0, 0.0, 0.0, 1.0, 0.0, 0.0, 0.0, 1.0)",0.00441681733355,-0.00345139484853,0.00328843179159,"(1.2184696791468346e-07, 0.0, 0.0, 0.0, 1.2184696791468346e-07, 0.0, 0.0, 0.0, 1.2184696791468346e-07)",0.0,0.0,0.0,"(-1.0, 0.0, 0.0, 0.0, 8.999999999999999e-08, 0.0, 0.0, 0.0, 8.999999999999999e-08)"
1970/01/01/01:00:12.466000,99,12,466000000,base_link,0.000282399160169,-0.000340838595312,-0.696807737113,-0.717257889822,"(1.0, 0.0, 0.0, 0.0, 1.0, 0.0, 0.0, 0.0, 1.0)",-0.00544530944899,-0.00410033436492,-6.49061403237e-05,"(1.2184696791468346e-07, 0.0, 0.0, 0.0, 1.2184696791468346e-07, 0.0, 0.0, 0.0, 1.2184696791468346e-07)",0.0,0.0,0.0,"(-1.0, 0.0, 0.0, 0.0, 8.999999999999999e-08, 0.0, 0.0, 0.0, 8.999999999999999e-08)"
1970/01/01/01:00:12.486000,100,12,486000000,base_link,0.000237566705416,-0.000335379117285,-0.696771756875,-0.717292858535,"(1.0, 0.0, 0.0, 0.0, 1.0, 0.0, 0.0, 0.0, 1.0)",0.00676183495671,-0.0131088802591,-0.0081841815263,"(1.2184696791468346e-07, 0.0, 0.0, 0.0, 1.2184696791468346e-07, 0.0, 0.0, 0.0, 1.2184696791468346e-07)",0.0,0.0,0.0,"(-1.0, 0.0, 0.0, 0.0, 8.999999999999999e-08, 0.0, 0.0, 0.0, 8.999999999999999e-08)"
1970/01/01/01:00:12.506000,101,12,506000000,base_link,0.000140401421568,-0.000382896977629,-0.696725641638,-0.717337625074,"(1.0, 0.0, 0.0, 0.0, 1.0, 0.0, 0.0, 0.0, 1.0)",0.009964838624,-0.00135863106698,-0.00857469532639,"(1.2184696791468346e-07, 0.0, 0.0, 0.0, 1.2184696791468346e-07, 0.0, 0.0, 0.0, 1.2184696791468346e-07)",0.0,0.0,0.0,"(-1.0, 0.0, 0.0, 0.0, 8.999999999999999e-08, 0.0, 0.0, 0.0, 8.999999999999999e-08)"
1970/01/01/01:00:12.526000,102,12,526000000,base_link,0.00014108700756,-0.000406190643534,-0.696718519479,-0.717344494351,"(1.0, 0.0, 0.0, 0.0, 1.0, 0.0, 0.0, 0.0, 1.0)",0.00484586833045,0.00344159197994,0.00519651500508,"(1.2184696791468346e-07, 0.0, 0.0, 0.0, 1.2184696791468346e-07, 0.0, 0.0, 0.0, 1.2184696791468346e-07)",0.0,0.0,0.0,"(-1.0, 0.0, 0.0, 0.0, 8.999999999999999e-08, 0.0, 0.0, 0.0, 8.999999999999999e-08)"
1970/01/01/01:00:12.546000,103,12,546000000,base_link,0.000145006685051,-0.000456468932096,-0.696729374268,-0.717333892443,"(1.0, 0.0, 0.0, 0.0, 1.0, 0.0, 0.0, 0.0, 1.0)",0.00602033082396,0.003789734561,-0.00295917852782,"(1.2184696791468346e-07, 0.0, 0.0, 0.0, 1.2184696791468346e-07, 0.0, 0.0, 0.0, 1.2184696791468346e-07)",0.0,0.0,0.0,"(-1.0, 0.0, 0.0, 0.0, 8.999999999999999e-08, 0.0, 0.0, 0.0, 8.999999999999999e-08)"
1970/01/01/01:00:12.566000,104,12,566000000,base_link,0.000143384381235,-0.000532867730023,-0.69671233838,-0.717350422569,"(1.0, 0.0, 0.0, 0.0, 1.0, 0.0, 0.0, 0.0, 1.0)",0.00339729804546,0.00711738225073,-0.00550140347332,"(1.2184696791468346e-07, 0.0, 0.0, 0.0, 1.2184696791468346e-07, 0.0, 0.0, 0.0, 1.2184696791468346e-07)",0.0,0.0,0.0,"(-1.0, 0.0, 0.0, 0.0, 8.999999999999999e-08, 0.0, 0.0, 0.0, 8.999999999999999e-08)"
1970/01/01/01:00:12.586000,105,12,586000000,base_link,0.000180796562267,-0.000514205463586,-0.696676593901,-0.717385239817,"(1.0, 0.0, 0.0, 0.0, 1.0, 0.0, 0.0, 0.0, 1.0)",-0.00451330468059,2.95066420222e-05,-0.00463977316394,"(1.2184696791468346e-07, 0.0, 0.0, 0.0, 1.2184696791468346e-07, 0.0, 0.0, 0.0, 1.2184696791468346e-07)",0.0,0.0,0.0,"(-1.0, 0.0, 0.0, 0.0, 8.999999999999999e-08, 0.0, 0.0, 0.0, 8.999999999999999e-08)"
1970/01/01/01:00:12.606000,106,12,606000000,base_link,0.00016628699518,-0.000588470783101,-0.696635937339,-0.717424716268,"(1.0, 0.0, 0.0, 0.0, 1.0, 0.0, 0.0, 0.0, 1.0)",0.0112029286101,0.0052521484904,-0.00471365638077,"(1.2184696791468346e-07, 0.0, 0.0, 0.0, 1.2184696791468346e-07, 0.0, 0.0, 0.0, 1.2184696791468346e-07)",0.0,0.0,0.0,"(-1.0, 0.0, 0.0, 0.0, 8.999999999999999e-08, 0.0, 0.0, 0.0, 8.999999999999999e-08)"
1970/01/01/01:00:12.626000,107,12,626000000,base_link,0.000112472837098,-0.000610936987832,-0.696642559663,-0.717418262531,"(1.0, 0.0, 0.0, 0.0, 1.0, 0.0, 0.0, 0.0, 1.0)",0.00811740197241,-0.00190612103324,0.00244569545612,"(1.2184696791468346e-07, 0.0, 0.0, 0.0, 1.2184696791468346e-07, 0.0, 0.0, 0.0, 1.2184696791468346e-07)",0.0,0.0,0.0,"(-1.0, 0.0, 0.0, 0.0, 8.999999999999999e-08, 0.0, 0.0, 0.0, 8.999999999999999e-08)"
1970/01/01/01:00:12.646000,108,12,646000000,base_link,9.24602868859e-05,-0.000647322189284,-0.696633099671,-0.717427216761,"(1.0, 0.0, 0.0, 0.0, 1.0, 0.0, 0.0, 0.0, 1.0)",0.00262663466856,0.000256521074334,-6.65686093271e-05,"(1.2184696791468346e-07, 0.0, 0.0, 0.0, 1.2184696791468346e-07, 0.0, 0.0, 0.0, 1.2184696791468346e-07)",0.0,0.0,0.0,"(-1.0, 0.0, 0.0, 0.0, 8.999999999999999e-08, 0.0, 0.0, 0.0, 8.999999999999999e-08)"
1970/01/01/01:00:12.666000,109,12,666000000,base_link,2.82859889226e-05,-0.000582391305999,-0.696622235662,-0.717437912182,"(1.0, 0.0, 0.0, 0.0, 1.0, 0.0, 0.0, 0.0, 1.0)",0.00129150995053,-0.0117738610134,0.00113732181489,"(1.2184696791468346e-07, 0.0, 0.0, 0.0, 1.2184696791468346e-07, 0.0, 0.0, 0.0, 1.2184696791468346e-07)",0.0,0.0,0.0,"(-1.0, 0.0, 0.0, 0.0, 8.999999999999999e-08, 0.0, 0.0, 0.0, 8.999999999999999e-08)"
1970/01/01/01:00:12.686000,110,12,685000000,base_link,7.06324587375e-05,-0.000538643000721,-0.696656815834,-0.717404343535,"(1.0, 0.0, 0.0, 0.0, 1.0, 0.0, 0.0, 0.0, 1.0)",-0.00687771756202,0.00423667533323,0.00371971633285,"(1.2184696791468346e-07, 0.0, 0.0, 0.0, 1.2184696791468346e-07, 0.0, 0.0, 0.0, 1.2184696791468346e-07)",0.0,0.0,0.0,"(-1.0, 0.0, 0.0, 0.0, 8.999999999999999e-08, 0.0, 0.0, 0.0, 8.999999999999999e-08)"
1970/01/01/01:00:12.706000,111,12,705000000,base_link,0.000132330896884,-0.00056656740755,-0.69665620668,-0.717404952688,"(1.0, 0.0, 0.0, 0.0, 1.0, 0.0, 0.0, 0.0, 1.0)",-0.00185168813914,0.00624011270702,-0.000946131360251,"(1.2184696791468346e-07, 0.0, 0.0, 0.0, 1.2184696791468346e-07, 0.0, 0.0, 0.0, 1.2184696791468346e-07)",0.0,0.0,0.0,"(-1.0, 0.0, 0.0, 0.0, 8.999999999999999e-08, 0.0, 0.0, 0.0, 8.999999999999999e-08)"
1970/01/01/01:00:12.726000,112,12,726000000,base_link,0.000149296032386,-0.000595286327748,-0.69664656493,-0.717414257264,"(1.0, 0.0, 0.0, 0.0, 1.0, 0.0, 0.0, 0.0, 1.0)",0.00171548791695,0.00187452638056,0.00140682572965,"(1.2184696791468346e-07, 0.0, 0.0, 0.0, 1.2184696791468346e-07, 0.0, 0.0, 0.0, 1.2184696791468346e-07)",0.0,0.0,0.0,"(-1.0, 0.0, 0.0, 0.0, 8.999999999999999e-08, 0.0, 0.0, 0.0, 8.999999999999999e-08)"
1970/01/01/01:00:12.746000,113,12,746000000,base_link,0.000149724539065,-0.000643785867014,-0.696684878391,-0.717377039621,"(1.0, 0.0, 0.0, 0.0, 1.0, 0.0, 0.0, 0.0, 1.0)",-0.00138883572072,0.00710662035272,0.00375059945509,"(1.2184696791468346e-07, 0.0, 0.0, 0.0, 1.2184696791468346e-07, 0.0, 0.0, 0.0, 1.2184696791468346e-07)",0.0,0.0,0.0,"(-1.0, 0.0, 0.0, 0.0, 8.999999999999999e-08, 0.0, 0.0, 0.0, 8.999999999999999e-08)"
1970/01/01/01:00:12.766000,114,12,766000000,base_link,0.000218498441145,-0.000711183822662,-0.696723839201,-0.717339174629,"(1.0, 0.0, 0.0, 0.0, 1.0, 0.0, 0.0, 0.0, 1.0)",0.00242783175781,0.00976832024753,0.00535884592682,"(1.2184696791468346e-07, 0.0, 0.0, 0.0, 1.2184696791468346e-07, 0.0, 0.0, 0.0, 1.2184696791468346e-07)",0.0,0.0,0.0,"(-1.0, 0.0, 0.0, 0.0, 8.999999999999999e-08, 0.0, 0.0, 0.0, 8.999999999999999e-08)"
1970/01/01/01:00:12.786000,115,12,786000000,base_link,0.000198344777192,-0.000679697719021,-0.696761223456,-0.717302801899,"(1.0, 0.0, 0.0, 0.0, 1.0, 0.0, 0.0, 0.0, 1.0)",0.000251817808021,-0.00546941766515,0.00273641222157,"(1.2184696791468346e-07, 0.0, 0.0, 0.0, 1.2184696791468346e-07, 0.0, 0.0, 0.0, 1.2184696791468346e-07)",0.0,0.0,0.0,"(-1.0, 0.0, 0.0, 0.0, 8.999999999999999e-08, 0.0, 0.0, 0.0, 8.999999999999999e-08)"
1970/01/01/01:00:12.806000,116,12,806000000,base_link,0.000157823895651,-0.000671268164103,-0.696762699254,-0.717301494688,"(1.0, 0.0, 0.0, 0.0, 1.0, 0.0, 0.0, 0.0, 1.0)",0.00383265921846,0.00118280621246,-4.06902399845e-05,"(1.2184696791468346e-07, 0.0, 0.0, 0.0, 1.2184696791468346e-07, 0.0, 0.0, 0.0, 1.2184696791468346e-07)",0.0,0.0,0.0,"(-1.0, 0.0, 0.0, 0.0, 8.999999999999999e-08, 0.0, 0.0, 0.0, 8.999999999999999e-08)"
1970/01/01/01:00:12.826000,117,12,826000000,base_link,0.000130793668787,-0.00069304633388,-0.696784382491,-0.717280401507,"(1.0, 0.0, 0.0, 0.0, 1.0, 0.0, 0.0, 0.0, 1.0)",0.000498378649354,-0.00383687391877,0.0046370299533,"(1.2184696791468346e-07, 0.0, 0.0, 0.0, 1.2184696791468346e-07, 0.0, 0.0, 0.0, 1.2184696791468346e-07)",0.0,0.0,0.0,"(-1.0, 0.0, 0.0, 0.0, 8.999999999999999e-08, 0.0, 0.0, 0.0, 8.999999999999999e-08)"
1970/01/01/01:00:12.846000,118,12,846000000,base_link,0.000128849707138,-0.000710329361163,-0.696751227409,-0.717312629358,"(1.0, 0.0, 0.0, 0.0, 1.0, 0.0, 0.0, 0.0, 1.0)",0.00218005850911,0.00365636125207,-0.00189199403394,"(1.2184696791468346e-07, 0.0, 0.0, 0.0, 1.2184696791468346e-07, 0.0, 0.0, 0.0, 1.2184696791468346e-07)",0.0,0.0,0.0,"(-1.0, 0.0, 0.0, 0.0, 8.999999999999999e-08, 0.0, 0.0, 0.0, 8.999999999999999e-08)"
1970/01/01/01:00:12.866000,119,12,866000000,base_link,0.000114421058707,-0.000764016811166,-0.696795559308,-0.717269393277,"(1.0, 0.0, 0.0, 0.0, 1.0, 0.0, 0.0, 0.0, 1.0)",0.00408856663853,0.0040716691874,0.00746465101838,"(1.2184696791468346e-07, 0.0, 0.0, 0.0, 1.2184696791468346e-07, 0.0, 0.0, 0.0, 1.2184696791468346e-07)",0.0,0.0,0.0,"(-1.0, 0.0, 0.0, 0.0, 8.999999999999999e-08, 0.0, 0.0, 0.0, 8.999999999999999e-08)"
1970/01/01/01:00:12.886000,120,12,886000000,base_link,0.000107717837058,-0.000743702421194,-0.696804780248,-0.717260593805,"(1.0, 0.0, 0.0, 0.0, 1.0, 0.0, 0.0, 0.0, 1.0)",-0.00162094389088,-0.00412409892306,-0.00113085843623,"(1.2184696791468346e-07, 0.0, 0.0, 0.0, 1.2184696791468346e-07, 0.0, 0.0, 0.0, 1.2184696791468346e-07)",0.0,0.0,0.0,"(-1.0, 0.0, 0.0, 0.0, 8.999999999999999e-08, 0.0, 0.0, 0.0, 8.999999999999999e-08)"
1970/01/01/01:00:12.906000,121,12,906000000,base_link,4.26650818797e-05,-0.000748706536274,-0.696793516503,-0.717271520376,"(1.0, 0.0, 0.0, 0.0, 1.0, 0.0, 0.0, 0.0, 1.0)",-0.000166954472661,7.41729745641e-05,-0.00357074500062,"(1.2184696791468346e-07, 0.0, 0.0, 0.0, 1.2184696791468346e-07, 0.0, 0.0, 0.0, 1.2184696791468346e-07)",0.0,0.0,0.0,"(-1.0, 0.0, 0.0, 0.0, 8.999999999999999e-08, 0.0, 0.0, 0.0, 8.999999999999999e-08)"
1970/01/01/01:00:12.925000,122,12,926000000,base_link,0.000126972896449,-0.000714045651299,-0.696836757853,-0.717229374844,"(1.0, 0.0, 0.0, 0.0, 1.0, 0.0, 0.0, 0.0, 1.0)",-0.00922291353345,0.00341780250892,0.0109200822189,"(1.2184696791468346e-07, 0.0, 0.0, 0.0, 1.2184696791468346e-07, 0.0, 0.0, 0.0, 1.2184696791468346e-07)",0.0,0.0,0.0,"(-1.0, 0.0, 0.0, 0.0, 8.999999999999999e-08, 0.0, 0.0, 0.0, 8.999999999999999e-08)"
1970/01/01/01:00:12.946000,123,12,946000000,base_link,8.69983804752e-05,-0.000793869107041,-0.696784023584,-0.717280591826,"(1.0, 0.0, 0.0, 0.0, 1.0, 0.0, 0.0, 0.0, 1.0)",0.0109160505235,-0.000211242746445,-0.00952729489654,"(1.2184696791468346e-07, 0.0, 0.0, 0.0, 1.2184696791468346e-07, 0.0, 0.0, 0.0, 1.2184696791468346e-07)",0.0,0.0,0.0,"(-1.0, 0.0, 0.0, 0.0, 8.999999999999999e-08, 0.0, 0.0, 0.0, 8.999999999999999e-08)"
1970/01/01/01:00:12.967000,124,12,965000000,base_link,0.000117691020302,-0.000790158188159,-0.696779247819,-0.717285283298,"(1.0, 0.0, 0.0, 0.0, 1.0, 0.0, 0.0, 0.0, 1.0)",-0.000455504021375,0.00145793554839,-0.000110754976049,"(1.2184696791468346e-07, 0.0, 0.0, 0.0, 1.2184696791468346e-07, 0.0, 0.0, 0.0, 1.2184696791468346e-07)",0.0,0.0,0.0,"(-1.0, 0.0, 0.0, 0.0, 8.999999999999999e-08, 0.0, 0.0, 0.0, 8.999999999999999e-08)"
1970/01/01/01:00:12.987000,125,12,984000000,base_link,0.00010417379747,-0.000791978425759,-0.696750948845,-0.717312739335,"(1.0, 0.0, 0.0, 0.0, 1.0, 0.0, 0.0, 0.0, 1.0)",0.00252516241744,-0.00165247742552,-0.00264855078422,"(1.2184696791468346e-07, 0.0, 0.0, 0.0, 1.2184696791468346e-07, 0.0, 0.0, 0.0, 1.2184696791468346e-07)",0.0,0.0,0.0,"(-1.0, 0.0, 0.0, 0.0, 8.999999999999999e-08, 0.0, 0.0, 0.0, 8.999999999999999e-08)"
1970/01/01/01:00:13.006000,126,13,6000000,base_link,0.000189817448994,-0.00075385452275,-0.696714798702,-0.717347877953,"(1.0, 0.0, 0.0, 0.0, 1.0, 0.0, 0.0, 0.0, 1.0)",-0.0173279643059,-0.00164215941913,-0.00783248711377,"(1.2184696791468346e-07, 0.0, 0.0, 0.0, 1.2184696791468346e-07, 0.0, 0.0, 0.0, 1.2184696791468346e-07)",0.0,0.0,0.0,"(-1.0, 0.0, 0.0, 0.0, 8.999999999999999e-08, 0.0, 0.0, 0.0, 8.999999999999999e-08)"
1970/01/01/01:00:13.026000,127,13,25000000,base_link,0.000262771359441,-0.000859927418524,-0.69669728076,-0.717364721546,"(1.0, 0.0, 0.0, 0.0, 1.0, 0.0, 0.0, 0.0, 1.0)",0.00928514450788,0.0135078690946,0.00223520630971,"(1.2184696791468346e-07, 0.0, 0.0, 0.0, 1.2184696791468346e-07, 0.0, 0.0, 0.0, 1.2184696791468346e-07)",0.0,0.0,0.0,"(-1.0, 0.0, 0.0, 0.0, 8.999999999999999e-08, 0.0, 0.0, 0.0, 8.999999999999999e-08)"
1970/01/01/01:00:13.046000,128,13,46000000,base_link,0.000223260355902,-0.000901517776346,-0.696689021953,-0.717372727471,"(1.0, 0.0, 0.0, 0.0, 1.0, 0.0, 0.0, 0.0, 1.0)",0.00764487311244,-0.00224379030988,0.000865237961989,"(1.2184696791468346e-07, 0.0, 0.0, 0.0, 1.2184696791468346e-07, 0.0, 0.0, 0.0, 1.2184696791468346e-07)",0.0,0.0,0.0,"(-1.0, 0.0, 0.0, 0.0, 8.999999999999999e-08, 0.0, 0.0, 0.0, 8.999999999999999e-08)"
1970/01/01/01:00:13.066000,129,13,66000000,base_link,0.000213042008885,-0.000883390721378,-0.696657506647,-0.71740339984,"(1.0, 0.0, 0.0, 0.0, 1.0, 0.0, 0.0, 0.0, 1.0)",-0.00016582403623,-0.00675351452082,-0.00243320153095,"(1.2184696791468346e-07, 0.0, 0.0, 0.0, 1.2184696791468346e-07, 0.0, 0.0, 0.0, 1.2184696791468346e-07)",0.0,0.0,0.0,"(-1.0, 0.0, 0.0, 0.0, 8.999999999999999e-08, 0.0, 0.0, 0.0, 8.999999999999999e-08)"
1970/01/01/01:00:13.086000,130,13,86000000,base_link,0.000236795482913,-0.00091075133179,-0.696662788174,-0.717398202607,"(1.0, 0.0, 0.0, 0.0, 1.0, 0.0, 0.0, 0.0, 1.0)",0.000567597395275,0.00263903755695,0.00145999505185,"(1.2184696791468346e-07, 0.0, 0.0, 0.0, 1.2184696791468346e-07, 0.0, 0.0, 0.0, 1.2184696791468346e-07)",0.0,0.0,0.0,"(-1.0, 0.0, 0.0, 0.0, 8.999999999999999e-08, 0.0, 0.0, 0.0, 8.999999999999999e-08)"
1970/01/01/01:00:13.106000,131,13,106000000,base_link,0.000288950890857,-0.000931287712999,-0.696709445394,-0.717352894087,"(1.0, 0.0, 0.0, 0.0, 1.0, 0.0, 0.0, 0.0, 1.0)",-0.00220263935626,0.0048335371539,0.00640281382948,"(1.2184696791468346e-07, 0.0, 0.0, 0.0, 1.2184696791468346e-07, 0.0, 0.0, 0.0, 1.2184696791468346e-07)",0.0,0.0,0.0,"(-1.0, 0.0, 0.0, 0.0, 8.999999999999999e-08, 0.0, 0.0, 0.0, 8.999999999999999e-08)"
1970/01/01/01:00:13.126000,132,13,126000000,base_link,0.000354353559543,-0.000997151568636,-0.696708958071,-0.717353297116,"(1.0, 0.0, 0.0, 0.0, 1.0, 0.0, 0.0, 0.0, 1.0)",-0.00130032456946,0.00909519195557,0.000864711008035,"(1.2184696791468346e-07, 0.0, 0.0, 0.0, 1.2184696791468346e-07, 0.0, 0.0, 0.0, 1.2184696791468346e-07)",0.0,0.0,0.0,"(-1.0, 0.0, 0.0, 0.0, 8.999999999999999e-08, 0.0, 0.0, 0.0, 8.999999999999999e-08)"
1970/01/01/01:00:13.145000,133,13,145000000,base_link,0.000394735056023,-0.000922745793925,-0.696739023262,-0.717323990568,"(1.0, 0.0, 0.0, 0.0, 1.0, 0.0, 0.0, 0.0, 1.0)",-0.0120622273535,-0.00557642988861,0.00132259866223,"(1.2184696791468346e-07, 0.0, 0.0, 0.0, 1.2184696791468346e-07, 0.0, 0.0, 0.0, 1.2184696791468346e-07)",0.0,0.0,0.0,"(-1.0, 0.0, 0.0, 0.0, 8.999999999999999e-08, 0.0, 0.0, 0.0, 8.999999999999999e-08)"
1970/01/01/01:00:13.166000,134,13,166000000,base_link,0.000344441250506,-0.000933594923683,-0.696735477,-0.717327452537,"(1.0, 0.0, 0.0, 0.0, 1.0, 0.0, 0.0, 0.0, 1.0)",0.00745652802289,8.2574901171e-05,0.00400847569108,"(1.2184696791468346e-07, 0.0, 0.0, 0.0, 1.2184696791468346e-07, 0.0, 0.0, 0.0, 1.2184696791468346e-07)",0.0,0.0,0.0,"(-1.0, 0.0, 0.0, 0.0, 8.999999999999999e-08, 0.0, 0.0, 0.0, 8.999999999999999e-08)"
1970/01/01/01:00:13.186000,135,13,186000000,base_link,0.000284300681711,-0.000941720436833,-0.696772892865,-0.71729113249,"(1.0, 0.0, 0.0, 0.0, 1.0, 0.0, 0.0, 0.0, 1.0)",0.00132391764782,-0.00442525465041,0.0048852134496,"(1.2184696791468346e-07, 0.0, 0.0, 0.0, 1.2184696791468346e-07, 0.0, 0.0, 0.0, 1.2184696791468346e-07)",0.0,0.0,0.0,"(-1.0, 0.0, 0.0, 0.0, 8.999999999999999e-08, 0.0, 0.0, 0.0, 8.999999999999999e-08)"
1970/01/01/01:00:13.206000,136,13,206000000,base_link,0.00032634687581,-0.000883237959632,-0.69682108581,-0.717244456831,"(1.0, 0.0, 0.0, 0.0, 1.0, 0.0, 0.0, 0.0, 1.0)",-0.0111434226856,-0.00256444280967,0.00978872273117,"(1.2184696791468346e-07, 0.0, 0.0, 0.0, 1.2184696791468346e-07, 0.0, 0.0, 0.0, 1.2184696791468346e-07)",0.0,0.0,0.0,"(-1.0, 0.0, 0.0, 0.0, 8.999999999999999e-08, 0.0, 0.0, 0.0, 8.999999999999999e-08)"
1970/01/01/01:00:13.226000,137,13,226000000,base_link,0.000435844635195,-0.000932185597277,-0.696851590251,-0.717214711034,"(1.0, 0.0, 0.0, 0.0, 1.0, 0.0, 0.0, 0.0, 1.0)",-0.00249883439392,0.00874388497323,0.00180117937271,"(1.2184696791468346e-07, 0.0, 0.0, 0.0, 1.2184696791468346e-07, 0.0, 0.0, 0.0, 1.2184696791468346e-07)",0.0,0.0,0.0,"(-1.0, 0.0, 0.0, 0.0, 8.999999999999999e-08, 0.0, 0.0, 0.0, 8.999999999999999e-08)"
1970/01/01/01:00:13.246000,138,13,246000000,base_link,0.000494696267752,-0.000911058357587,-0.696862929728,-0.717203708731,"(1.0, 0.0, 0.0, 0.0, 1.0, 0.0, 0.0, 0.0, 1.0)",-0.0080378241837,0.00209718779661,0.00344984559342,"(1.2184696791468346e-07, 0.0, 0.0, 0.0, 1.2184696791468346e-07, 0.0, 0.0, 0.0, 1.2184696791468346e-07)",0.0,0.0,0.0,"(-1.0, 0.0, 0.0, 0.0, 8.999999999999999e-08, 0.0, 0.0, 0.0, 8.999999999999999e-08)"
1970/01/01/01:00:13.266000,139,13,266000000,base_link,0.00050162016355,-0.000930604658288,-0.696883846419,-0.717183213509,"(1.0, 0.0, 0.0, 0.0, 1.0, 0.0, 0.0, 0.0, 1.0)",0.00297747808509,0.00639544660226,-0.00112096767407,"(1.2184696791468346e-07, 0.0, 0.0, 0.0, 1.2184696791468346e-07, 0.0, 0.0, 0.0, 1.2184696791468346e-07)",0.0,0.0,0.0,"(-1.0, 0.0, 0.0, 0.0, 8.999999999999999e-08, 0.0, 0.0, 0.0, 8.999999999999999e-08)"
1970/01/01/01:00:13.286000,140,13,286000000,base_link,0.000472021633685,-0.0010318714345,-0.696862953436,-0.717203432142,"(1.0, 0.0, 0.0, 0.0, 1.0, 0.0, 0.0, 0.0, 1.0)",0.00826269295067,-7.51246116124e-05,0.000941617065109,"(1.2184696791468346e-07, 0.0, 0.0, 0.0, 1.2184696791468346e-07, 0.0, 0.0, 0.0, 1.2184696791468346e-07)",0.0,0.0,0.0,"(-1.0, 0.0, 0.0, 0.0, 8.999999999999999e-08, 0.0, 0.0, 0.0, 8.999999999999999e-08)"
1970/01/01/01:00:13.306000,141,13,306000000,base_link,0.000423184117029,-0.00106253032392,-0.696876614283,-0.71719010847,"(1.0, 0.0, 0.0, 0.0, 1.0, 0.0, 0.0, 0.0, 1.0)",0.00805976521224,-0.00159444264136,0.00193133251742,"(1.2184696791468346e-07, 0.0, 0.0, 0.0, 1.2184696791468346e-07, 0.0, 0.0, 0.0, 1.2184696791468346e-07)",0.0,0.0,0.0,"(-1.0, 0.0, 0.0, 0.0, 8.999999999999999e-08, 0.0, 0.0, 0.0, 8.999999999999999e-08)"
1970/01/01/01:00:13.326000,142,13,326000000,base_link,0.000428943397444,-0.001079641965,-0.69687830345,-0.717188419303,"(1.0, 0.0, 0.0, 0.0, 1.0, 0.0, 0.0, 0.0, 1.0)",-0.00185788306408,-0.00203508557752,-0.0012672576122,"(1.2184696791468346e-07, 0.0, 0.0, 0.0, 1.2184696791468346e-07, 0.0, 0.0, 0.0, 1.2184696791468346e-07)",0.0,0.0,0.0,"(-1.0, 0.0, 0.0, 0.0, 8.999999999999999e-08, 0.0, 0.0, 0.0, 8.999999999999999e-08)"
1970/01/01/01:00:13.346000,143,13,346000000,base_link,0.000540485978686,-0.00107759953037,-0.696899707464,-0.717167689639,"(1.0, 0.0, 0.0, 0.0, 1.0, 0.0, 0.0, 0.0, 1.0)",-0.00464511476457,0.00604144576937,0.00151105900295,"(1.2184696791468346e-07, 0.0, 0.0, 0.0, 1.2184696791468346e-07, 0.0, 0.0, 0.0, 1.2184696791468346e-07)",0.0,0.0,0.0,"(-1.0, 0.0, 0.0, 0.0, 8.999999999999999e-08, 0.0, 0.0, 0.0, 8.999999999999999e-08)"
1970/01/01/01:00:13.366000,144,13,366000000,base_link,0.000545369312588,-0.00104879094522,-0.69688521224,-0.717181763394,"(1.0, 0.0, 0.0, 0.0, 1.0, 0.0, 0.0, 0.0, 1.0)",-0.00354569102637,-0.00282000703737,-0.000425366451964,"(1.2184696791468346e-07, 0.0, 0.0, 0.0, 1.2184696791468346e-07, 0.0, 0.0, 0.0, 1.2184696791468346e-07)",0.0,0.0,0.0,"(-1.0, 0.0, 0.0, 0.0, 8.999999999999999e-08, 0.0, 0.0, 0.0, 8.999999999999999e-08)"
1970/01/01/01:00:13.386000,145,13,386000000,base_link,0.000553830642278,-0.00100437078049,-0.69689769561,-0.717169701492,"(1.0, 0.0, 0.0, 0.0, 1.0, 0.0, 0.0, 0.0, 1.0)",-0.000613506883383,-0.00119675288443,0.00593702495098,"(1.2184696791468346e-07, 0.0, 0.0, 0.0, 1.2184696791468346e-07, 0.0, 0.0, 0.0, 1.2184696791468346e-07)",0.0,0.0,0.0,"(-1.0, 0.0, 0.0, 0.0, 8.999999999999999e-08, 0.0, 0.0, 0.0, 8.999999999999999e-08)"
1970/01/01/01:00:13.406000,146,13,406000000,base_link,0.000585344219573,-0.00097062177386,-0.696936675518,-0.717131901696,"(1.0, 0.0, 0.0, 0.0, 1.0, 0.0, 0.0, 0.0, 1.0)",-0.00511194160208,-0.00400540139526,0.00198124349117,"(1.2184696791468346e-07, 0.0, 0.0, 0.0, 1.2184696791468346e-07, 0.0, 0.0, 0.0, 1.2184696791468346e-07)",0.0,0.0,0.0,"(-1.0, 0.0, 0.0, 0.0, 8.999999999999999e-08, 0.0, 0.0, 0.0, 8.999999999999999e-08)"
1970/01/01/01:00:13.426000,147,13,426000000,base_link,0.000588427823362,-0.000915888688945,-0.696910200712,-0.717157617859,"(1.0, 0.0, 0.0, 0.0, 1.0, 0.0, 0.0, 0.0, 1.0)",-0.00498487381265,-0.00362323550507,0.00447129178792,"(1.2184696791468346e-07, 0.0, 0.0, 0.0, 1.2184696791468346e-07, 0.0, 0.0, 0.0, 1.2184696791468346e-07)",0.0,0.0,0.0,"(-1.0, 0.0, 0.0, 0.0, 8.999999999999999e-08, 0.0, 0.0, 0.0, 8.999999999999999e-08)"
1970/01/01/01:00:13.446000,148,13,446000000,base_link,0.000620979513755,-0.000935597773616,-0.696934524712,-0.717133883915,"(1.0, 0.0, 0.0, 0.0, 1.0, 0.0, 0.0, 0.0, 1.0)",0.00142710015643,0.000445127661806,0.00622869748622,"(1.2184696791468346e-07, 0.0, 0.0, 0.0, 1.2184696791468346e-07, 0.0, 0.0, 0.0, 1.2184696791468346e-07)",0.0,0.0,0.0,"(-1.0, 0.0, 0.0, 0.0, 8.999999999999999e-08, 0.0, 0.0, 0.0, 8.999999999999999e-08)"
1970/01/01/01:00:13.466000,149,13,466000000,base_link,0.0005742602158,-0.000997513315366,-0.696995239223,-0.717074855278,"(1.0, 0.0, 0.0, 0.0, 1.0, 0.0, 0.0, 0.0, 1.0)",0.00848419032991,-0.000237189582549,0.00842536147684,"(1.2184696791468346e-07, 0.0, 0.0, 0.0, 1.2184696791468346e-07, 0.0, 0.0, 0.0, 1.2184696791468346e-07)",0.0,0.0,0.0,"(-1.0, 0.0, 0.0, 0.0, 8.999999999999999e-08, 0.0, 0.0, 0.0, 8.999999999999999e-08)"
1970/01/01/01:00:13.486000,150,13,486000000,base_link,0.000615987386243,-0.00103300954347,-0.697004231648,-0.717066115734,"(1.0, 0.0, 0.0, 0.0, 1.0, 0.0, 0.0, 0.0, 1.0)",0.000415594724473,0.00970822293311,-0.000479484413518,"(1.2184696791468346e-07, 0.0, 0.0, 0.0, 1.2184696791468346e-07, 0.0, 0.0, 0.0, 1.2184696791468346e-07)",0.0,0.0,0.0,"(-1.0, 0.0, 0.0, 0.0, 8.999999999999999e-08, 0.0, 0.0, 0.0, 8.999999999999999e-08)"
1970/01/01/01:00:13.506000,151,13,506000000,base_link,0.000605039721763,-0.0010563278019,-0.69697692971,-0.717092659029,"(1.0, 0.0, 0.0, 0.0, 1.0, 0.0, 0.0, 0.0, 1.0)",0.000628714857157,-0.000545301183593,-0.00352804758586,"(1.2184696791468346e-07, 0.0, 0.0, 0.0, 1.2184696791468346e-07, 0.0, 0.0, 0.0, 1.2184696791468346e-07)",0.0,0.0,0.0,"(-1.0, 0.0, 0.0, 0.0, 8.999999999999999e-08, 0.0, 0.0, 0.0, 8.999999999999999e-08)"
1970/01/01/01:00:13.526000,152,13,526000000,base_link,0.000617809537738,-0.00117068522874,-0.69694598602,-0.717122422607,"(1.0, 0.0, 0.0, 0.0, 1.0, 0.0, 0.0, 0.0, 1.0)",0.0133516527712,0.0146786523983,-0.00482628401369,"(1.2184696791468346e-07, 0.0, 0.0, 0.0, 1.2184696791468346e-07, 0.0, 0.0, 0.0, 1.2184696791468346e-07)",0.0,0.0,0.0,"(-1.0, 0.0, 0.0, 0.0, 8.999999999999999e-08, 0.0, 0.0, 0.0, 8.999999999999999e-08)"
1970/01/01/01:00:13.546000,153,13,546000000,base_link,0.000634542453982,-0.00128402835299,-0.696957652136,-0.717110925078,"(1.0, 0.0, 0.0, 0.0, 1.0, 0.0, 0.0, 0.0, 1.0)",0.00600530859083,0.00633031316102,0.000784112606198,"(1.2184696791468346e-07, 0.0, 0.0, 0.0, 1.2184696791468346e-07, 0.0, 0.0, 0.0, 1.2184696791468346e-07)",0.0,0.0,0.0,"(-1.0, 0.0, 0.0, 0.0, 8.999999999999999e-08, 0.0, 0.0, 0.0, 8.999999999999999e-08)"
1970/01/01/01:00:13.566000,154,13,566000000,base_link,0.000650522695013,-0.00133463865088,-0.69691436864,-0.717152859875,"(1.0, 0.0, 0.0, 0.0, 1.0, 0.0, 0.0, 0.0, 1.0)",0.00834647286683,0.00281359488145,-0.00669819116592,"(1.2184696791468346e-07, 0.0, 0.0, 0.0, 1.2184696791468346e-07, 0.0, 0.0, 0.0, 1.2184696791468346e-07)",0.0,0.0,0.0,"(-1.0, 0.0, 0.0, 0.0, 8.999999999999999e-08, 0.0, 0.0, 0.0, 8.999999999999999e-08)"
1970/01/01/01:00:13.586000,155,13,586000000,base_link,0.000642348758262,-0.00134649994296,-0.696913827316,-0.717153485492,"(1.0, 0.0, 0.0, 0.0, 1.0, 0.0, 0.0, 0.0, 1.0)",-0.00709315948188,-0.00198181299493,0.00167438655626,"(1.2184696791468346e-07, 0.0, 0.0, 0.0, 1.2184696791468346e-07, 0.0, 0.0, 0.0, 1.2184696791468346e-07)",0.0,0.0,0.0,"(-1.0, 0.0, 0.0, 0.0, 8.999999999999999e-08, 0.0, 0.0, 0.0, 8.999999999999999e-08)"
1970/01/01/01:00:13.606000,156,13,606000000,base_link,0.000681952307883,-0.00138035291731,-0.696990550386,-0.717078616884,"(1.0, 0.0, 0.0, 0.0, 1.0, 0.0, 0.0, 0.0, 1.0)",0.00306531321257,0.00847983267158,0.00823062751442,"(1.2184696791468346e-07, 0.0, 0.0, 0.0, 1.2184696791468346e-07, 0.0, 0.0, 0.0, 1.2184696791468346e-07)",0.0,0.0,0.0,"(-1.0, 0.0, 0.0, 0.0, 8.999999999999999e-08, 0.0, 0.0, 0.0, 8.999999999999999e-08)"
1970/01/01/01:00:13.626000,157,13,626000000,base_link,0.000632191532407,-0.00139272548689,-0.697014929045,-0.717055081162,"(1.0, 0.0, 0.0, 0.0, 1.0, 0.0, 0.0, 0.0, 1.0)",0.00979926995933,-0.00411619059741,0.00267279800028,"(1.2184696791468346e-07, 0.0, 0.0, 0.0, 1.2184696791468346e-07, 0.0, 0.0, 0.0, 1.2184696791468346e-07)",0.0,0.0,0.0,"(-1.0, 0.0, 0.0, 0.0, 8.999999999999999e-08, 0.0, 0.0, 0.0, 8.999999999999999e-08)"
1970/01/01/01:00:13.646000,158,13,646000000,base_link,0.00057209992228,-0.00143408874975,-0.697015241195,-0.717054769012,"(1.0, 0.0, 0.0, 0.0, 1.0, 0.0, 0.0, 0.0, 1.0)",0.00631763506681,-0.00191515008919,0.000507277902216,"(1.2184696791468346e-07, 0.0, 0.0, 0.0, 1.2184696791468346e-07, 0.0, 0.0, 0.0, 1.2184696791468346e-07)",0.0,0.0,0.0,"(-1.0, 0.0, 0.0, 0.0, 8.999999999999999e-08, 0.0, 0.0, 0.0, 8.999999999999999e-08)"
1970/01/01/01:00:13.666000,159,13,666000000,base_link,0.000646183997999,-0.0014650846699,-0.697034425255,-0.717036006421,"(1.0, 0.0, 0.0, 0.0, 1.0, 0.0, 0.0, 0.0, 1.0)",0.00297806574963,0.00666371779516,0.00287077086978,"(1.2184696791468346e-07, 0.0, 0.0, 0.0, 1.2184696791468346e-07, 0.0, 0.0, 0.0, 1.2184696791468346e-07)",0.0,0.0,0.0,"(-1.0, 0.0, 0.0, 0.0, 8.999999999999999e-08, 0.0, 0.0, 0.0, 8.999999999999999e-08)"
1970/01/01/01:00:13.686000,160,13,686000000,base_link,0.000682433539282,-0.00149164842088,-0.697011540175,-0.717058132857,"(1.0, 0.0, 0.0, 0.0, 1.0, 0.0, 0.0, 0.0, 1.0)",-0.0018043643795,0.000372753071133,-0.00340184336528,"(1.2184696791468346e-07, 0.0, 0.0, 0.0, 1.2184696791468346e-07, 0.0, 0.0, 0.0, 1.2184696791468346e-07)",0.0,0.0,0.0,"(-1.0, 0.0, 0.0, 0.0, 8.999999999999999e-08, 0.0, 0.0, 0.0, 8.999999999999999e-08)"
1970/01/01/01:00:13.705000,161,13,706000000,base_link,0.000734065774773,-0.00142923597643,-0.696967202349,-0.717101206278,"(1.0, 0.0, 0.0, 0.0, 1.0, 0.0, 0.0, 0.0, 1.0)",-0.00643841549754,-0.00257289619185,-0.000914274831302,"(1.2184696791468346e-07, 0.0, 0.0, 0.0, 1.2184696791468346e-07, 0.0, 0.0, 0.0, 1.2184696791468346e-07)",0.0,0.0,0.0,"(-1.0, 0.0, 0.0, 0.0, 8.999999999999999e-08, 0.0, 0.0, 0.0, 8.999999999999999e-08)"
1970/01/01/01:00:13.726000,162,13,726000000,base_link,0.000688111263076,-0.00144441604472,-0.697041824661,-0.717028775602,"(1.0, 0.0, 0.0, 0.0, 1.0, 0.0, 0.0, 0.0, 1.0)",0.00543266348541,-0.000469711027108,0.0103938737884,"(1.2184696791468346e-07, 0.0, 0.0, 0.0, 1.2184696791468346e-07, 0.0, 0.0, 0.0, 1.2184696791468346e-07)",0.0,0.0,0.0,"(-1.0, 0.0, 0.0, 0.0, 8.999999999999999e-08, 0.0, 0.0, 0.0, 8.999999999999999e-08)"
1970/01/01/01:00:13.746000,163,13,746000000,base_link,0.000689311995509,-0.00139191485975,-0.697091516454,-0.716980516802,"(1.0, 0.0, 0.0, 0.0, 1.0, 0.0, 0.0, 0.0, 1.0)",-0.00587209826335,-0.00573334516957,0.00622175773606,"(1.2184696791468346e-07, 0.0, 0.0, 0.0, 1.2184696791468346e-07, 0.0, 0.0, 0.0, 1.2184696791468346e-07)",0.0,0.0,0.0,"(-1.0, 0.0, 0.0, 0.0, 8.999999999999999e-08, 0.0, 0.0, 0.0, 8.999999999999999e-08)"
1970/01/01/01:00:13.766000,164,13,766000000,base_link,0.000735799372611,-0.00133069732373,-0.697133604034,-0.716939693628,"(1.0, 0.0, 0.0, 0.0, 1.0, 0.0, 0.0, 0.0, 1.0)",-0.00867480225861,-0.000980264274403,0.00363405281678,"(1.2184696791468346e-07, 0.0, 0.0, 0.0, 1.2184696791468346e-07, 0.0, 0.0, 0.0, 1.2184696791468346e-07)",0.0,0.0,0.0,"(-1.0, 0.0, 0.0, 0.0, 8.999999999999999e-08, 0.0, 0.0, 0.0, 8.999999999999999e-08)"
1970/01/01/01:00:13.786000,165,13,786000000,base_link,0.000707761901922,-0.00131198175635,-0.697189658684,-0.716885240558,"(1.0, 0.0, 0.0, 0.0, 1.0, 0.0, 0.0, 0.0, 1.0)",0.000574291334487,-0.00231397012249,0.01049859263,"(1.2184696791468346e-07, 0.0, 0.0, 0.0, 1.2184696791468346e-07, 0.0, 0.0, 0.0, 1.2184696791468346e-07)",0.0,0.0,0.0,"(-1.0, 0.0, 0.0, 0.0, 8.999999999999999e-08, 0.0, 0.0, 0.0, 8.999999999999999e-08)"
1970/01/01/01:00:13.806000,166,13,806000000,base_link,0.000716854796375,-0.00134761029016,-0.697169204291,-0.716905104895,"(1.0, 0.0, 0.0, 0.0, 1.0, 0.0, 0.0, 0.0, 1.0)",0.00304350396618,0.00323272519745,-0.00564584881067,"(1.2184696791468346e-07, 0.0, 0.0, 0.0, 1.2184696791468346e-07, 0.0, 0.0, 0.0, 1.2184696791468346e-07)",0.0,0.0,0.0,"(-1.0, 0.0, 0.0, 0.0, 8.999999999999999e-08, 0.0, 0.0, 0.0, 8.999999999999999e-08)"
1970/01/01/01:00:13.826000,167,13,826000000,base_link,0.000713453558048,-0.00136753523338,-0.697178678771,-0.716895799002,"(1.0, 0.0, 0.0, 0.0, 1.0, 0.0, 0.0, 0.0, 1.0)",0.00265124510042,-0.000234159524553,0.00315817794763,"(1.2184696791468346e-07, 0.0, 0.0, 0.0, 1.2184696791468346e-07, 0.0, 0.0, 0.0, 1.2184696791468346e-07)",0.0,0.0,0.0,"(-1.0, 0.0, 0.0, 0.0, 8.999999999999999e-08, 0.0, 0.0, 0.0, 8.999999999999999e-08)"
1970/01/01/01:00:13.846000,168,13,846000000,base_link,0.000743981232475,-0.00145047938749,-0.697167861519,-0.716906194786,"(1.0, 0.0, 0.0, 0.0, 1.0, 0.0, 0.0, 0.0, 1.0)",0.00252892961726,0.00375422649086,-0.00246779294685,"(1.2184696791468346e-07, 0.0, 0.0, 0.0, 1.2184696791468346e-07, 0.0, 0.0, 0.0, 1.2184696791468346e-07)",0.0,0.0,0.0,"(-1.0, 0.0, 0.0, 0.0, 8.999999999999999e-08, 0.0, 0.0, 0.0, 8.999999999999999e-08)"
1970/01/01/01:00:13.866000,169,13,866000000,base_link,0.000760847503982,-0.00154547793128,-0.697161071925,-0.716912478617,"(1.0, 0.0, 0.0, 0.0, 1.0, 0.0, 0.0, 0.0, 1.0)",0.00884087942541,0.00596948107705,-0.00157196738292,"(1.2184696791468346e-07, 0.0, 0.0, 0.0, 1.2184696791468346e-07, 0.0, 0.0, 0.0, 1.2184696791468346e-07)",0.0,0.0,0.0,"(-1.0, 0.0, 0.0, 0.0, 8.999999999999999e-08, 0.0, 0.0, 0.0, 8.999999999999999e-08)"
1970/01/01/01:00:13.886000,170,13,886000000,base_link,0.0007834401081,-0.0015495466662,-0.697170215157,-0.716903503973,"(1.0, 0.0, 0.0, 0.0, 1.0, 0.0, 0.0, 0.0, 1.0)",-0.00492396345362,-0.00258458359167,-0.00157250126358,"(1.2184696791468346e-07, 0.0, 0.0, 0.0, 1.2184696791468346e-07, 0.0, 0.0, 0.0, 1.2184696791468346e-07)",0.0,0.0,0.0,"(-1.0, 0.0, 0.0, 0.0, 8.999999999999999e-08, 0.0, 0.0, 0.0, 8.999999999999999e-08)"
1970/01/01/01:00:13.906000,171,13,906000000,base_link,0.000798513780297,-0.00157837420509,-0.697214093977,-0.716860889558,"(1.0, 0.0, 0.0, 0.0, 1.0, 0.0, 0.0, 0.0, 1.0)",0.00257186638191,0.0122877582908,0.00879168789834,"(1.2184696791468346e-07, 0.0, 0.0, 0.0, 1.2184696791468346e-07, 0.0, 0.0, 0.0, 1.2184696791468346e-07)",0.0,0.0,0.0,"(-1.0, 0.0, 0.0, 0.0, 8.999999999999999e-08, 0.0, 0.0, 0.0, 8.999999999999999e-08)"
1970/01/01/01:00:13.925000,172,13,925000000,base_link,0.000821897131732,-0.00169201141061,-0.697260213825,-0.716815781235,"(1.0, 0.0, 0.0, 0.0, 1.0, 0.0, 0.0, 0.0, 1.0)",0.00536337774247,0.00655988510698,0.00588862970471,"(1.2184696791468346e-07, 0.0, 0.0, 0.0, 1.2184696791468346e-07, 0.0, 0.0, 0.0, 1.2184696791468346e-07)",0.0,0.0,0.0,"(-1.0, 0.0, 0.0, 0.0, 8.999999999999999e-08, 0.0, 0.0, 0.0, 8.999999999999999e-08)"
1970/01/01/01:00:13.946000,173,13,946000000,base_link,0.000882614976527,-0.00164133439393,-0.697255703454,-0.716820207312,"(1.0, 0.0, 0.0, 0.0, 1.0, 0.0, 0.0, 0.0, 1.0)",-0.00833697430789,-0.00306990277022,-0.00215947860852,"(1.2184696791468346e-07, 0.0, 0.0, 0.0, 1.2184696791468346e-07, 0.0, 0.0, 0.0, 1.2184696791468346e-07)",0.0,0.0,0.0,"(-1.0, 0.0, 0.0, 0.0, 8.999999999999999e-08, 0.0, 0.0, 0.0, 8.999999999999999e-08)"
1970/01/01/01:00:13.966000,174,13,966000000,base_link,0.000927736305945,-0.00172557721839,-0.697209218773,-0.716865174707,"(1.0, 0.0, 0.0, 0.0, 1.0, 0.0, 0.0, 0.0, 1.0)",0.0044482559897,0.00615159794688,-0.00667710602283,"(1.2184696791468346e-07, 0.0, 0.0, 0.0, 1.2184696791468346e-07, 0.0, 0.0, 0.0, 1.2184696791468346e-07)",0.0,0.0,0.0,"(-1.0, 0.0, 0.0, 0.0, 8.999999999999999e-08, 0.0, 0.0, 0.0, 8.999999999999999e-08)"
1970/01/01/01:00:13.986000,175,13,986000000,base_link,0.000985205633,-0.0017426134767,-0.697185827272,-0.716887723271,"(1.0, 0.0, 0.0, 0.0, 1.0, 0.0, 0.0, 0.0, 1.0)",-0.00180361268576,0.00405681831762,-5.74290315853e-05,"(1.2184696791468346e-07, 0.0, 0.0, 0.0, 1.2184696791468346e-07, 0.0, 0.0, 0.0, 1.2184696791468346e-07)",0.0,0.0,0.0,"(-1.0, 0.0, 0.0, 0.0, 8.999999999999999e-08, 0.0, 0.0, 0.0, 8.999999999999999e-08)"
1970/01/01/01:00:14.006000,176,14,6000000,base_link,0.00093406393085,-0.00175248156036,-0.697214647813,-0.716859745666,"(1.0, 0.0, 0.0, 0.0, 1.0, 0.0, 0.0, 0.0, 1.0)",0.00531152635813,0.00087559473468,0.00222970428877,"(1.2184696791468346e-07, 0.0, 0.0, 0.0, 1.2184696791468346e-07, 0.0, 0.0, 0.0, 1.2184696791468346e-07)",0.0,0.0,0.0,"(-1.0, 0.0, 0.0, 0.0, 8.999999999999999e-08, 0.0, 0.0, 0.0, 8.999999999999999e-08)"
1970/01/01/01:00:14.026000,177,14,26000000,base_link,0.000928462392424,-0.00178506020992,-0.697168676138,-0.716904452935,"(1.0, 0.0, 0.0, 0.0, 1.0, 0.0, 0.0, 0.0, 1.0)",-0.000227624565014,-0.00223937840201,-0.00958243012428,"(1.2184696791468346e-07, 0.0, 0.0, 0.0, 1.2184696791468346e-07, 0.0, 0.0, 0.0, 1.2184696791468346e-07)",0.0,0.0,0.0,"(-1.0, 0.0, 0.0, 0.0, 8.999999999999999e-08, 0.0, 0.0, 0.0, 8.999999999999999e-08)"
1970/01/01/01:00:14.046000,178,14,46000000,base_link,0.00094862397949,-0.00184360605145,-0.697225027133,-0.71684945064,"(1.0, 0.0, 0.0, 0.0, 1.0, 0.0, 0.0, 0.0, 1.0)",0.00308409240097,0.00128729850985,0.0033074284438,"(1.2184696791468346e-07, 0.0, 0.0, 0.0, 1.2184696791468346e-07, 0.0, 0.0, 0.0, 1.2184696791468346e-07)",0.0,0.0,0.0,"(-1.0, 0.0, 0.0, 0.0, 8.999999999999999e-08, 0.0, 0.0, 0.0, 8.999999999999999e-08)"
1970/01/01/01:00:14.066000,179,14,66000000,base_link,0.00100166821672,-0.00189996581332,-0.697251182546,-0.716823716696,"(1.0, 0.0, 0.0, 0.0, 1.0, 0.0, 0.0, 0.0, 1.0)",-0.00251920474693,0.00642966292799,0.00190364569426,"(1.2184696791468346e-07, 0.0, 0.0, 0.0, 1.2184696791468346e-07, 0.0, 0.0, 0.0, 1.2184696791468346e-07)",0.0,0.0,0.0,"(-1.0, 0.0, 0.0, 0.0, 8.999999999999999e-08, 0.0, 0.0, 0.0, 8.999999999999999e-08)"
1970/01/01/01:00:14.086000,180,14,85000000,base_link,0.00101627074148,-0.00187298133472,-0.697216391639,-0.716857664665,"(1.0, 0.0, 0.0, 0.0, 1.0, 0.0, 0.0, 0.0, 1.0)",-0.00350335449912,-0.00424384977669,-0.00825650338084,"(1.2184696791468346e-07, 0.0, 0.0, 0.0, 1.2184696791468346e-07, 0.0, 0.0, 0.0, 1.2184696791468346e-07)",0.0,0.0,0.0,"(-1.0, 0.0, 0.0, 0.0, 8.999999999999999e-08, 0.0, 0.0, 0.0, 8.999999999999999e-08)"
1970/01/01/01:00:14.106000,181,14,106000000,base_link,0.00104098612266,-0.00189263670686,-0.697179420292,-0.716893455901,"(1.0, 0.0, 0.0, 0.0, 1.0, 0.0, 0.0, 0.0, 1.0)",-0.000571713142563,0.00144220655784,-0.0069570899941,"(1.2184696791468346e-07, 0.0, 0.0, 0.0, 1.2184696791468346e-07, 0.0, 0.0, 0.0, 1.2184696791468346e-07)",0.0,0.0,0.0,"(-1.0, 0.0, 0.0, 0.0, 8.999999999999999e-08, 0.0, 0.0, 0.0, 8.999999999999999e-08)"
1970/01/01/01:00:14.126000,182,14,126000000,base_link,0.0010050044032,-0.00196096119347,-0.697127879306,-0.716943395306,"(1.0, 0.0, 0.0, 0.0, 1.0, 0.0, 0.0, 0.0, 1.0)",0.00636543985456,0.0010270467028,-0.00827135611326,"(1.2184696791468346e-07, 0.0, 0.0, 0.0, 1.2184696791468346e-07, 0.0, 0.0, 0.0, 1.2184696791468346e-07)",0.0,0.0,0.0,"(-1.0, 0.0, 0.0, 0.0, 8.999999999999999e-08, 0.0, 0.0, 0.0, 8.999999999999999e-08)"
1970/01/01/01:00:14.146000,183,14,146000000,base_link,0.00103354444625,-0.00199824135691,-0.697108391657,-0.716962208606,"(1.0, 0.0, 0.0, 0.0, 1.0, 0.0, 0.0, 0.0, 1.0)",0.000295534322504,0.0039920154959,-0.00388801144436,"(1.2184696791468346e-07, 0.0, 0.0, 0.0, 1.2184696791468346e-07, 0.0, 0.0, 0.0, 1.2184696791468346e-07)",0.0,0.0,0.0,"(-1.0, 0.0, 0.0, 0.0, 8.999999999999999e-08, 0.0, 0.0, 0.0, 8.999999999999999e-08)"
1970/01/01/01:00:14.166000,184,14,166000000,base_link,0.00107912268208,-0.00199100852142,-0.697098676808,-0.716971670573,"(1.0, 0.0, 0.0, 0.0, 1.0, 0.0, 0.0, 0.0, 1.0)",-0.00805904716253,0.00995969958603,0.00234123016708,"(1.2184696791468346e-07, 0.0, 0.0, 0.0, 1.2184696791468346e-07, 0.0, 0.0, 0.0, 1.2184696791468346e-07)",0.0,0.0,0.0,"(-1.0, 0.0, 0.0, 0.0, 8.999999999999999e-08, 0.0, 0.0, 0.0, 8.999999999999999e-08)"
1970/01/01/01:00:14.186000,185,14,186000000,base_link,0.00106486622245,-0.00197427387649,-0.697076500981,-0.716993340639,"(1.0, 0.0, 0.0, 0.0, 1.0, 0.0, 0.0, 0.0, 1.0)",0.000156434543896,-0.0121116610244,-0.00473859114572,"(1.2184696791468346e-07, 0.0, 0.0, 0.0, 1.2184696791468346e-07, 0.0, 0.0, 0.0, 1.2184696791468346e-07)",0.0,0.0,0.0,"(-1.0, 0.0, 0.0, 0.0, 8.999999999999999e-08, 0.0, 0.0, 0.0, 8.999999999999999e-08)"
1970/01/01/01:00:14.206000,186,14,206000000,base_link,0.00102729745189,-0.00206944981571,-0.697005384101,-0.717062265883,"(1.0, 0.0, 0.0, 0.0, 1.0, 0.0, 0.0, 0.0, 1.0)",0.00984968617558,0.00540569005534,-0.00999922771007,"(1.2184696791468346e-07, 0.0, 0.0, 0.0, 1.2184696791468346e-07, 0.0, 0.0, 0.0, 1.2184696791468346e-07)",0.0,0.0,0.0,"(-1.0, 0.0, 0.0, 0.0, 8.999999999999999e-08, 0.0, 0.0, 0.0, 8.999999999999999e-08)"
1970/01/01/01:00:14.226000,187,14,226000000,base_link,0.00102733136693,-0.00208312613878,-0.696988418677,-0.717078641251,"(1.0, 0.0, 0.0, 0.0, 1.0, 0.0, 0.0, 0.0, 1.0)",-0.00197167298757,-0.00245152926072,-0.00363708799705,"(1.2184696791468346e-07, 0.0, 0.0, 0.0, 1.2184696791468346e-07, 0.0, 0.0, 0.0, 1.2184696791468346e-07)",0.0,0.0,0.0,"(-1.0, 0.0, 0.0, 0.0, 8.999999999999999e-08, 0.0, 0.0, 0.0, 8.999999999999999e-08)"
1970/01/01/01:00:14.246000,188,14,246000000,base_link,0.00102766607217,-0.00208111049868,-0.697011745641,-0.71705607293,"(1.0, 0.0, 0.0, 0.0, 1.0, 0.0, 0.0, 0.0, 1.0)",-0.00210432056338,-0.000526428455487,0.00628456799313,"(1.2184696791468346e-07, 0.0, 0.0, 0.0, 1.2184696791468346e-07, 0.0, 0.0, 0.0, 1.2184696791468346e-07)",0.0,0.0,0.0,"(-1.0, 0.0, 0.0, 0.0, 8.999999999999999e-08, 0.0, 0.0, 0.0, 8.999999999999999e-08)"
1970/01/01/01:00:14.266000,189,14,266000000,base_link,0.00098252247572,-0.00208305588032,-0.696939709433,-0.717126001796,"(1.0, 0.0, 0.0, 0.0, 1.0, 0.0, 0.0, 0.0, 1.0)",0.00161066558212,7.44702701922e-05,-0.0161112546921,"(1.2184696791468346e-07, 0.0, 0.0, 0.0, 1.2184696791468346e-07, 0.0, 0.0, 0.0, 1.2184696791468346e-07)",0.0,0.0,0.0,"(-1.0, 0.0, 0.0, 0.0, 8.999999999999999e-08, 0.0, 0.0, 0.0, 8.999999999999999e-08)"
1970/01/01/01:00:14.286000,190,14,286000000,base_link,0.000982760169129,-0.00210420474908,-0.69691467618,-0.717150360699,"(1.0, 0.0, 0.0, 0.0, 1.0, 0.0, 0.0, 0.0, 1.0)",0.00152373313904,-0.00311502628028,0.00045632047113,"(1.2184696791468346e-07, 0.0, 0.0, 0.0, 1.2184696791468346e-07, 0.0, 0.0, 0.0, 1.2184696791468346e-07)",0.0,0.0,0.0,"(-1.0, 0.0, 0.0, 0.0, 8.999999999999999e-08, 0.0, 0.0, 0.0, 8.999999999999999e-08)"
1970/01/01/01:00:14.306000,191,14,306000000,base_link,0.00096768015844,-0.00216588303988,-0.696949469062,-0.71711632646,"(1.0, 0.0, 0.0, 0.0, 1.0, 0.0, 0.0, 0.0, 1.0)",-0.00233109574765,0.00847151502967,0.0069750957191,"(1.2184696791468346e-07, 0.0, 0.0, 0.0, 1.2184696791468346e-07, 0.0, 0.0, 0.0, 1.2184696791468346e-07)",0.0,0.0,0.0,"(-1.0, 0.0, 0.0, 0.0, 8.999999999999999e-08, 0.0, 0.0, 0.0, 8.999999999999999e-08)"
1970/01/01/01:00:14.326000,192,14,326000000,base_link,0.00109214486465,-0.0021371555586,-0.696914080197,-0.717150788094,"(1.0, 0.0, 0.0, 0.0, 1.0, 0.0, 0.0, 0.0, 1.0)",-0.00585845066234,0.00535037368536,-0.00708095589653,"(1.2184696791468346e-07, 0.0, 0.0, 0.0, 1.2184696791468346e-07, 0.0, 0.0, 0.0, 1.2184696791468346e-07)",0.0,0.0,0.0,"(-1.0, 0.0, 0.0, 0.0, 8.999999999999999e-08, 0.0, 0.0, 0.0, 8.999999999999999e-08)"
1970/01/01/01:00:14.346000,193,14,346000000,base_link,0.00115218037502,-0.00224269394261,-0.696929079207,-0.717135704791,"(1.0, 0.0, 0.0, 0.0, 1.0, 0.0, 0.0, 0.0, 1.0)",0.00386046082713,0.00914938747883,0.002036054153,"(1.2184696791468346e-07, 0.0, 0.0, 0.0, 1.2184696791468346e-07, 0.0, 0.0, 0.0, 1.2184696791468346e-07)",0.0,0.0,0.0,"(-1.0, 0.0, 0.0, 0.0, 8.999999999999999e-08, 0.0, 0.0, 0.0, 8.999999999999999e-08)"
1970/01/01/01:00:14.366000,194,14,366000000,base_link,0.00110331826584,-0.00222210528943,-0.696992010379,-0.71707462808,"(1.0, 0.0, 0.0, 0.0, 1.0, 0.0, 0.0, 0.0, 1.0)",-0.000611986150034,-0.004052659031,0.00565367424861,"(1.2184696791468346e-07, 0.0, 0.0, 0.0, 1.2184696791468346e-07, 0.0, 0.0, 0.0, 1.2184696791468346e-07)",0.0,0.0,0.0,"(-1.0, 0.0, 0.0, 0.0, 8.999999999999999e-08, 0.0, 0.0, 0.0, 8.999999999999999e-08)"
1970/01/01/01:00:14.386000,195,14,386000000,base_link,0.00113029356598,-0.00229308617995,-0.697063542142,-0.717004950779,"(1.0, 0.0, 0.0, 0.0, 1.0, 0.0, 0.0, 0.0, 1.0)",0.00399513635784,0.00178112369031,0.00746511714533,"(1.2184696791468346e-07, 0.0, 0.0, 0.0, 1.2184696791468346e-07, 0.0, 0.0, 0.0, 1.2184696791468346e-07)",0.0,0.0,0.0,"(-1.0, 0.0, 0.0, 0.0, 8.999999999999999e-08, 0.0, 0.0, 0.0, 8.999999999999999e-08)"
1970/01/01/01:00:14.406000,196,14,406000000,base_link,0.0011097397745,-0.00223915134359,-0.697074262588,-0.716994651801,"(1.0, 0.0, 0.0, 0.0, 1.0, 0.0, 0.0, 0.0, 1.0)",-0.00501601025462,-0.00952223874629,0.000394798233174,"(1.2184696791468346e-07, 0.0, 0.0, 0.0, 1.2184696791468346e-07, 0.0, 0.0, 0.0, 1.2184696791468346e-07)",0.0,0.0,0.0,"(-1.0, 0.0, 0.0, 0.0, 8.999999999999999e-08, 0.0, 0.0, 0.0, 8.999999999999999e-08)"
1970/01/01/01:00:14.426000,197,14,426000000,base_link,0.00107663996928,-0.00220589225292,-0.697075046256,-0.716994121014,"(1.0, 0.0, 0.0, 0.0, 1.0, 0.0, 0.0, 0.0, 1.0)",-0.00113351095933,-0.00750493118539,0.000130483589601,"(1.2184696791468346e-07, 0.0, 0.0, 0.0, 1.2184696791468346e-07, 0.0, 0.0, 0.0, 1.2184696791468346e-07)",0.0,0.0,0.0,"(-1.0, 0.0, 0.0, 0.0, 8.999999999999999e-08, 0.0, 0.0, 0.0, 8.999999999999999e-08)"
1970/01/01/01:00:14.446000,198,14,446000000,base_link,0.00111002352487,-0.00214982546103,-0.697054144053,-0.717014433161,"(1.0, 0.0, 0.0, 0.0, 1.0, 0.0, 0.0, 0.0, 1.0)",-0.00850818771869,-0.00666685216129,-0.003136085812,"(1.2184696791468346e-07, 0.0, 0.0, 0.0, 1.2184696791468346e-07, 0.0, 0.0, 0.0, 1.2184696791468346e-07)",0.0,0.0,0.0,"(-1.0, 0.0, 0.0, 0.0, 8.999999999999999e-08, 0.0, 0.0, 0.0, 8.999999999999999e-08)"
1970/01/01/01:00:14.466000,199,14,466000000,base_link,0.00110004690484,-0.00218094728666,-0.697084854618,-0.716984565533,"(1.0, 0.0, 0.0, 0.0, 1.0, 0.0, 0.0, 0.0, 1.0)",0.00310260709375,0.00221637426876,0.00557091273367,"(1.2184696791468346e-07, 0.0, 0.0, 0.0, 1.2184696791468346e-07, 0.0, 0.0, 0.0, 1.2184696791468346e-07)",0.0,0.0,0.0,"(-1.0, 0.0, 0.0, 0.0, 8.999999999999999e-08, 0.0, 0.0, 0.0, 8.999999999999999e-08)"
1970/01/01/01:00:14.486000,200,14,486000000,base_link,0.00104590507971,-0.00224428338094,-0.697068755839,-0.71700015855,"(1.0, 0.0, 0.0, 0.0, 1.0, 0.0, 0.0, 0.0, 1.0)",0.0124264843762,0.003358932212,-0.00392408901826,"(1.2184696791468346e-07, 0.0, 0.0, 0.0, 1.2184696791468346e-07, 0.0, 0.0, 0.0, 1.2184696791468346e-07)",0.0,0.0,0.0,"(-1.0, 0.0, 0.0, 0.0, 8.999999999999999e-08, 0.0, 0.0, 0.0, 8.999999999999999e-08)"
1970/01/01/01:00:14.506000,201,14,506000000,base_link,0.00104465919582,-0.00228250061205,-0.697037238557,-0.71703049572,"(1.0, 0.0, 0.0, 0.0, 1.0, 0.0, 0.0, 0.0, 1.0)",-0.00279426667839,0.00131708465051,-0.00361473299563,"(1.2184696791468346e-07, 0.0, 0.0, 0.0, 1.2184696791468346e-07, 0.0, 0.0, 0.0, 1.2184696791468346e-07)",0.0,0.0,0.0,"(-1.0, 0.0, 0.0, 0.0, 8.999999999999999e-08, 0.0, 0.0, 0.0, 8.999999999999999e-08)"
1970/01/01/01:00:14.526000,202,14,526000000,base_link,0.00109073290407,-0.00224657540394,-0.697006306063,-0.717060669571,"(1.0, 0.0, 0.0, 0.0, 1.0, 0.0, 0.0, 0.0, 1.0)",-0.00556191988289,-0.00147337804083,-0.00634009949863,"(1.2184696791468346e-07, 0.0, 0.0, 0.0, 1.2184696791468346e-07, 0.0, 0.0, 0.0, 1.2184696791468346e-07)",0.0,0.0,0.0,"(-1.0, 0.0, 0.0, 0.0, 8.999999999999999e-08, 0.0, 0.0, 0.0, 8.999999999999999e-08)"
1970/01/01/01:00:14.546000,203,14,546000000,base_link,0.00108386844191,-0.00232364499119,-0.696955480915,-0.717109977432,"(1.0, 0.0, 0.0, 0.0, 1.0, 0.0, 0.0, 0.0, 1.0)",0.00760480808094,0.00448958855122,-0.00729073490947,"(1.2184696791468346e-07, 0.0, 0.0, 0.0, 1.2184696791468346e-07, 0.0, 0.0, 0.0, 1.2184696791468346e-07)",0.0,0.0,0.0,"(-1.0, 0.0, 0.0, 0.0, 8.999999999999999e-08, 0.0, 0.0, 0.0, 8.999999999999999e-08)"
1970/01/01/01:00:14.566000,204,14,566000000,base_link,0.00107063005094,-0.00232104011839,-0.696970754538,-0.717095040984,"(1.0, 0.0, 0.0, 0.0, 1.0, 0.0, 0.0, 0.0, 1.0)",-0.0073427259922,-0.000577941653319,-0.00574539136142,"(1.2184696791468346e-07, 0.0, 0.0, 0.0, 1.2184696791468346e-07, 0.0, 0.0, 0.0, 1.2184696791468346e-07)",0.0,0.0,0.0,"(-1.0, 0.0, 0.0, 0.0, 8.999999999999999e-08, 0.0, 0.0, 0.0, 8.999999999999999e-08)"
1970/01/01/01:00:14.586000,205,14,586000000,base_link,0.00117000038361,-0.0023667985073,-0.696870780238,-0.717191896418,"(1.0, 0.0, 0.0, 0.0, 1.0, 0.0, 0.0, 0.0, 1.0)",-0.00349239562638,0.0106922537088,-0.0157390385866,"(1.2184696791468346e-07, 0.0, 0.0, 0.0, 1.2184696791468346e-07, 0.0, 0.0, 0.0, 1.2184696791468346e-07)",0.0,0.0,0.0,"(-1.0, 0.0, 0.0, 0.0, 8.999999999999999e-08, 0.0, 0.0, 0.0, 8.999999999999999e-08)"
1970/01/01/01:00:14.605000,206,14,606000000,base_link,0.00108746895169,-0.0024717332941,-0.696903973515,-0.71715937749,"(1.0, 0.0, 0.0, 0.0, 1.0, 0.0, 0.0, 0.0, 1.0)",0.003513723379,0.000423682155088,0.00656692497432,"(1.2184696791468346e-07, 0.0, 0.0, 0.0, 1.2184696791468346e-07, 0.0, 0.0, 0.0, 1.2184696791468346e-07)",0.0,0.0,0.0,"(-1.0, 0.0, 0.0, 0.0, 8.999999999999999e-08, 0.0, 0.0, 0.0, 8.999999999999999e-08)"
1970/01/01/01:00:14.626000,207,14,626000000,base_link,0.00106240063182,-0.00244686385467,-0.696886869797,-0.717176228327,"(1.0, 0.0, 0.0, 0.0, 1.0, 0.0, 0.0, 0.0, 1.0)",-0.00133090605959,-0.00421242788434,-0.00228883163072,"(1.2184696791468346e-07, 0.0, 0.0, 0.0, 1.2184696791468346e-07, 0.0, 0.0, 0.0, 1.2184696791468346e-07)",0.0,0.0,0.0,"(-1.0, 0.0, 0.0, 0.0, 8.999999999999999e-08, 0.0, 0.0, 0.0, 8.999999999999999e-08)"
1970/01/01/01:00:14.646000,208,14,646000000,base_link,0.00106023986497,-0.00251828539378,-0.696857419687,-0.717204582619,"(1.0, 0.0, 0.0, 0.0, 1.0, 0.0, 0.0, 0.0, 1.0)",0.00442076148465,0.00534259574488,-0.00671725813299,"(1.2184696791468346e-07, 0.0, 0.0, 0.0, 1.2184696791468346e-07, 0.0, 0.0, 0.0, 1.2184696791468346e-07)",0.0,0.0,0.0,"(-1.0, 0.0, 0.0, 0.0, 8.999999999999999e-08, 0.0, 0.0, 0.0, 8.999999999999999e-08)"
1970/01/01/01:00:14.666000,209,14,666000000,base_link,0.00113915885099,-0.00258168841265,-0.696869371611,-0.717192630695,"(1.0, 0.0, 0.0, 0.0, 1.0, 0.0, 0.0, 0.0, 1.0)",-0.00252784742042,0.00943291559815,0.00402799248695,"(1.2184696791468346e-07, 0.0, 0.0, 0.0, 1.2184696791468346e-07, 0.0, 0.0, 0.0, 1.2184696791468346e-07)",0.0,0.0,0.0,"(-1.0, 0.0, 0.0, 0.0, 8.999999999999999e-08, 0.0, 0.0, 0.0, 8.999999999999999e-08)"
1970/01/01/01:00:14.686000,210,14,686000000,base_link,0.00114650853697,-0.00263501405418,-0.696882007763,-0.717180078837,"(1.0, 0.0, 0.0, 0.0, 1.0, 0.0, 0.0, 0.0, 1.0)",0.00966873951256,0.00106783921365,-0.00216816714965,"(1.2184696791468346e-07, 0.0, 0.0, 0.0, 1.2184696791468346e-07, 0.0, 0.0, 0.0, 1.2184696791468346e-07)",0.0,0.0,0.0,"(-1.0, 0.0, 0.0, 0.0, 8.999999999999999e-08, 0.0, 0.0, 0.0, 8.999999999999999e-08)"
1970/01/01/01:00:14.706000,211,14,706000000,base_link,0.00105312280983,-0.00271469975065,-0.696863089755,-0.717198322495,"(1.0, 0.0, 0.0, 0.0, 1.0, 0.0, 0.0, 0.0, 1.0)",0.0106223635375,-0.00208556186408,-0.00350991007872,"(1.2184696791468346e-07, 0.0, 0.0, 0.0, 1.2184696791468346e-07, 0.0, 0.0, 0.0, 1.2184696791468346e-07)",0.0,0.0,0.0,"(-1.0, 0.0, 0.0, 0.0, 8.999999999999999e-08, 0.0, 0.0, 0.0, 8.999999999999999e-08)"
1970/01/01/01:00:14.726000,212,14,726000000,base_link,0.00103556724802,-0.00265581212452,-0.696886779576,-0.717175475611,"(1.0, 0.0, 0.0, 0.0, 1.0, 0.0, 0.0, 0.0, 1.0)",-0.00391266588122,-0.0112532489002,0.0014248470543,"(1.2184696791468346e-07, 0.0, 0.0, 0.0, 1.2184696791468346e-07, 0.0, 0.0, 0.0, 1.2184696791468346e-07)",0.0,0.0,0.0,"(-1.0, 0.0, 0.0, 0.0, 8.999999999999999e-08, 0.0, 0.0, 0.0, 8.999999999999999e-08)"
1970/01/01/01:00:14.746000,213,14,746000000,base_link,0.00103764166322,-0.00273209857887,-0.696857964961,-0.717203362995,"(1.0, 0.0, 0.0, 0.0, 1.0, 0.0, 0.0, 0.0, 1.0)",0.00671711796895,0.00845332443714,-0.00470109563321,"(1.2184696791468346e-07, 0.0, 0.0, 0.0, 1.2184696791468346e-07, 0.0, 0.0, 0.0, 1.2184696791468346e-07)",0.0,0.0,0.0,"(-1.0, 0.0, 0.0, 0.0, 8.999999999999999e-08, 0.0, 0.0, 0.0, 8.999999999999999e-08)"
1970/01/01/01:00:14.766000,214,14,766000000,base_link,0.00101310684671,-0.00278235614386,-0.696892150007,-0.717169852299,"(1.0, 0.0, 0.0, 0.0, 1.0, 0.0, 0.0, 0.0, 1.0)",0.00874549150467,-0.00732877291739,-0.000111622852273,"(1.2184696791468346e-07, 0.0, 0.0, 0.0, 1.2184696791468346e-07, 0.0, 0.0, 0.0, 1.2184696791468346e-07)",0.0,0.0,0.0,"(-1.0, 0.0, 0.0, 0.0, 8.999999999999999e-08, 0.0, 0.0, 0.0, 8.999999999999999e-08)"
1970/01/01/01:00:14.786000,215,14,786000000,base_link,0.000904423130659,-0.00286182880117,-0.696910718328,-0.717151705447,"(1.0, 0.0, 0.0, 0.0, 1.0, 0.0, 0.0, 0.0, 1.0)",0.0109780058265,-0.000952373957261,0.00403227470815,"(1.2184696791468346e-07, 0.0, 0.0, 0.0, 1.2184696791468346e-07, 0.0, 0.0, 0.0, 1.2184696791468346e-07)",0.0,0.0,0.0,"(-1.0, 0.0, 0.0, 0.0, 8.999999999999999e-08, 0.0, 0.0, 0.0, 8.999999999999999e-08)"
1970/01/01/01:00:14.806000,216,14,806000000,base_link,0.000852992368628,-0.00283792569348,-0.696859580371,-0.717201578998,"(1.0, 0.0, 0.0, 0.0, 1.0, 0.0, 0.0, 0.0, 1.0)",-0.00307033909485,-0.00769471004605,-0.0156537592411,"(1.2184696791468346e-07, 0.0, 0.0, 0.0, 1.2184696791468346e-07, 0.0, 0.0, 0.0, 1.2184696791468346e-07)",0.0,0.0,0.0,"(-1.0, 0.0, 0.0, 0.0, 8.999999999999999e-08, 0.0, 0.0, 0.0, 8.999999999999999e-08)"
1970/01/01/01:00:14.826000,217,14,826000000,base_link,0.000940513016057,-0.00284665659425,-0.696849156929,-0.717211496678,"(1.0, 0.0, 0.0, 0.0, 1.0, 0.0, 0.0, 0.0, 1.0)",-0.00782647542655,0.00697590131313,-0.00355015182868,"(1.2184696791468346e-07, 0.0, 0.0, 0.0, 1.2184696791468346e-07, 0.0, 0.0, 0.0, 1.2184696791468346e-07)",0.0,0.0,0.0,"(-1.0, 0.0, 0.0, 0.0, 8.999999999999999e-08, 0.0, 0.0, 0.0, 8.999999999999999e-08)"
1970/01/01/01:00:14.846000,218,14,846000000,base_link,0.00101711820595,-0.00302126539,-0.696859898448,-0.717200249396,"(1.0, 0.0, 0.0, 0.0, 1.0, 0.0, 0.0, 0.0, 1.0)",0.0117092123255,0.0116190724075,-0.00222402927466,"(1.2184696791468346e-07, 0.0, 0.0, 0.0, 1.2184696791468346e-07, 0.0, 0.0, 0.0, 1.2184696791468346e-07)",0.0,0.0,0.0,"(-1.0, 0.0, 0.0, 0.0, 8.999999999999999e-08, 0.0, 0.0, 0.0, 8.999999999999999e-08)"
1970/01/01/01:00:14.866000,219,14,866000000,base_link,0.000980714524092,-0.00299747118911,-0.696896902723,-0.717164509527,"(1.0, 0.0, 0.0, 0.0, 1.0, 0.0, 0.0, 0.0, 1.0)",0.00321092875674,-0.00674422830343,0.00365971727297,"(1.2184696791468346e-07, 0.0, 0.0, 0.0, 1.2184696791468346e-07, 0.0, 0.0, 0.0, 1.2184696791468346e-07)",0.0,0.0,0.0,"(-1.0, 0.0, 0.0, 0.0, 8.999999999999999e-08, 0.0, 0.0, 0.0, 8.999999999999999e-08)"
1970/01/01/01:00:14.886000,220,14,886000000,base_link,0.00101468496631,-0.00302692220501,-0.696880258669,-0.717180479232,"(1.0, 0.0, 0.0, 0.0, 1.0, 0.0, 0.0, 0.0, 1.0)",-0.00387734756805,-0.00241518695839,-0.00221129832789,"(1.2184696791468346e-07, 0.0, 0.0, 0.0, 1.2184696791468346e-07, 0.0, 0.0, 0.0, 1.2184696791468346e-07)",0.0,0.0,0.0,"(-1.0, 0.0, 0.0, 0.0, 8.999999999999999e-08, 0.0, 0.0, 0.0, 8.999999999999999e-08)"
1970/01/01/01:00:14.906000,221,14,906000000,base_link,0.000967359900014,-0.0029672795576,-0.696870084815,-0.717190568792,"(1.0, 0.0, 0.0, 0.0, 1.0, 0.0, 0.0, 0.0, 1.0)",0.0025716626551,-0.00435061007738,0.00226509035565,"(1.2184696791468346e-07, 0.0, 0.0, 0.0, 1.2184696791468346e-07, 0.0, 0.0, 0.0, 1.2184696791468346e-07)",0.0,0.0,0.0,"(-1.0, 0.0, 0.0, 0.0, 8.999999999999999e-08, 0.0, 0.0, 0.0, 8.999999999999999e-08)"
1970/01/01/01:00:14.926000,222,14,926000000,base_link,0.000981685959559,-0.00299894624649,-0.696859588932,-0.7172007275,"(1.0, 0.0, 0.0, 0.0, 1.0, 0.0, 0.0, 0.0, 1.0)",0.00536450790241,0.00216234195977,-0.00291585363448,"(1.2184696791468346e-07, 0.0, 0.0, 0.0, 1.2184696791468346e-07, 0.0, 0.0, 0.0, 1.2184696791468346e-07)",0.0,0.0,0.0,"(-1.0, 0.0, 0.0, 0.0, 8.999999999999999e-08, 0.0, 0.0, 0.0, 8.999999999999999e-08)"
1970/01/01/01:00:14.946000,223,14,946000000,base_link,0.000935539934887,-0.00306304814572,-0.696846022257,-0.717213704119,"(1.0, 0.0, 0.0, 0.0, 1.0, 0.0, 0.0, 0.0, 1.0)",0.00795507710427,-0.00294937915169,-0.00415267888457,"(1.2184696791468346e-07, 0.0, 0.0, 0.0, 1.2184696791468346e-07, 0.0, 0.0, 0.0, 1.2184696791468346e-07)",0.0,0.0,0.0,"(-1.0, 0.0, 0.0, 0.0, 8.999999999999999e-08, 0.0, 0.0, 0.0, 8.999999999999999e-08)"
1970/01/01/01:00:14.965000,224,14,966000000,base_link,0.000952637725948,-0.00306581864246,-0.696834386434,-0.717225002767,"(1.0, 0.0, 0.0, 0.0, 1.0, 0.0, 0.0, 0.0, 1.0)",-0.00537437619641,-0.00127788330428,-0.00547067821026,"(1.2184696791468346e-07, 0.0, 0.0, 0.0, 1.2184696791468346e-07, 0.0, 0.0, 0.0, 1.2184696791468346e-07)",0.0,0.0,0.0,"(-1.0, 0.0, 0.0, 0.0, 8.999999999999999e-08, 0.0, 0.0, 0.0, 8.999999999999999e-08)"
1970/01/01/01:00:14.986000,225,14,986000000,base_link,0.00102534803666,-0.00308943791747,-0.696791039059,-0.717266832856,"(1.0, 0.0, 0.0, 0.0, 1.0, 0.0, 0.0, 0.0, 1.0)",-0.00758051034063,0.00725685898215,-0.00747324014083,"(1.2184696791468346e-07, 0.0, 0.0, 0.0, 1.2184696791468346e-07, 0.0, 0.0, 0.0, 1.2184696791468346e-07)",0.0,0.0,0.0,"(-1.0, 0.0, 0.0, 0.0, 8.999999999999999e-08, 0.0, 0.0, 0.0, 8.999999999999999e-08)"
1970/01/01/01:00:15.006000,226,15,6000000,base_link,0.00108325336134,-0.00310265638747,-0.696877229364,-0.717182918481,"(1.0, 0.0, 0.0, 0.0, 1.0, 0.0, 0.0, 0.0, 1.0)",0.000427740043961,0.00135227432474,0.0119703346863,"(1.2184696791468346e-07, 0.0, 0.0, 0.0, 1.2184696791468346e-07, 0.0, 0.0, 0.0, 1.2184696791468346e-07)",0.0,0.0,0.0,"(-1.0, 0.0, 0.0, 0.0, 8.999999999999999e-08, 0.0, 0.0, 0.0, 8.999999999999999e-08)"
1970/01/01/01:00:15.026000,227,15,26000000,base_link,0.00112029402038,-0.00308772767738,-0.696872323207,-0.717187740344,"(1.0, 0.0, 0.0, 0.0, 1.0, 0.0, 0.0, 0.0, 1.0)",-0.00603285385296,-0.0061474009417,-0.00211273902096,"(1.2184696791468346e-07, 0.0, 0.0, 0.0, 1.2184696791468346e-07, 0.0, 0.0, 0.0, 1.2184696791468346e-07)",0.0,0.0,0.0,"(-1.0, 0.0, 0.0, 0.0, 8.999999999999999e-08, 0.0, 0.0, 0.0, 8.999999999999999e-08)"
1970/01/01/01:00:15.046000,228,15,46000000,base_link,0.00108122603208,-0.00309594581893,-0.696836873756,-0.71722217827,"(1.0, 0.0, 0.0, 0.0, 1.0, 0.0, 0.0, 0.0, 1.0)",0.00734287500381,-0.00963960401714,-0.00566038396209,"(1.2184696791468346e-07, 0.0, 0.0, 0.0, 1.2184696791468346e-07, 0.0, 0.0, 0.0, 1.2184696791468346e-07)",0.0,0.0,0.0,"(-1.0, 0.0, 0.0, 0.0, 8.999999999999999e-08, 0.0, 0.0, 0.0, 8.999999999999999e-08)"
1970/01/01/01:00:15.066000,229,15,66000000,base_link,0.00100166183707,-0.00305899505123,-0.696830078894,-0.717229057426,"(1.0, 0.0, 0.0, 0.0, 1.0, 0.0, 0.0, 0.0, 1.0)",0.00122243678197,-0.00771104544401,-0.00124199013226,"(1.2184696791468346e-07, 0.0, 0.0, 0.0, 1.2184696791468346e-07, 0.0, 0.0, 0.0, 1.2184696791468346e-07)",0.0,0.0,0.0,"(-1.0, 0.0, 0.0, 0.0, 8.999999999999999e-08, 0.0, 0.0, 0.0, 8.999999999999999e-08)"
1970/01/01/01:00:15.086000,230,15,86000000,base_link,0.000995823263784,-0.00306498838248,-0.696881066703,-0.71717950261,"(1.0, 0.0, 0.0, 0.0, 1.0, 0.0, 0.0, 0.0, 1.0)",-0.00250693433918,0.00357447983697,0.00413319608197,"(1.2184696791468346e-07, 0.0, 0.0, 0.0, 1.2184696791468346e-07, 0.0, 0.0, 0.0, 1.2184696791468346e-07)",0.0,0.0,0.0,"(-1.0, 0.0, 0.0, 0.0, 8.999999999999999e-08, 0.0, 0.0, 0.0, 8.999999999999999e-08)"
1970/01/01/01:00:15.106000,231,15,106000000,base_link,0.00106036029629,-0.00315524190729,-0.696893713391,-0.717166771628,"(1.0, 0.0, 0.0, 0.0, 1.0, 0.0, 0.0, 0.0, 1.0)",0.00331956357695,0.00777244661003,0.00685922941193,"(1.2184696791468346e-07, 0.0, 0.0, 0.0, 1.2184696791468346e-07, 0.0, 0.0, 0.0, 1.2184696791468346e-07)",0.0,0.0,0.0,"(-1.0, 0.0, 0.0, 0.0, 8.999999999999999e-08, 0.0, 0.0, 0.0, 8.999999999999999e-08)"
1970/01/01/01:00:15.126000,232,15,126000000,base_link,0.00115571531846,-0.00316980882949,-0.696869379513,-0.717190262569,"(1.0, 0.0, 0.0, 0.0, 1.0, 0.0, 0.0, 0.0, 1.0)",-0.00839678198099,0.000121592835058,-0.00390475988388,"(1.2184696791468346e-07, 0.0, 0.0, 0.0, 1.2184696791468346e-07, 0.0, 0.0, 0.0, 1.2184696791468346e-07)",0.0,0.0,0.0,"(-1.0, 0.0, 0.0, 0.0, 8.999999999999999e-08, 0.0, 0.0, 0.0, 8.999999999999999e-08)"
1970/01/01/01:00:15.146000,233,15,146000000,base_link,0.00114895774631,-0.00316485155339,-0.696878072301,-0.717181822663,"(1.0, 0.0, 0.0, 0.0, 1.0, 0.0, 0.0, 0.0, 1.0)",0.00109010143206,-0.00376226240769,-3.35607910529e-06,"(1.2184696791468346e-07, 0.0, 0.0, 0.0, 1.2184696791468346e-07, 0.0, 0.0, 0.0, 1.2184696791468346e-07)",0.0,0.0,0.0,"(-1.0, 0.0, 0.0, 0.0, 8.999999999999999e-08, 0.0, 0.0, 0.0, 8.999999999999999e-08)"
1970/01/01/01:00:15.166000,234,15,166000000,base_link,0.00112941593195,-0.00317669201901,-0.696883214216,-0.717176680747,"(1.0, 0.0, 0.0, 0.0, 1.0, 0.0, 0.0, 0.0, 1.0)",-0.000340660044458,-0.00233430042863,-0.00125668081455,"(1.2184696791468346e-07, 0.0, 0.0, 0.0, 1.2184696791468346e-07, 0.0, 0.0, 0.0, 1.2184696791468346e-07)",0.0,0.0,0.0,"(-1.0, 0.0, 0.0, 0.0, 8.999999999999999e-08, 0.0, 0.0, 0.0, 8.999999999999999e-08)"
1970/01/01/01:00:15.186000,235,15,186000000,base_link,0.00108521195503,-0.00325848077736,-0.696907928075,-0.717152388357,"(1.0, 0.0, 0.0, 0.0, 1.0, 0.0, 0.0, 0.0, 1.0)",0.0104358093813,0.00814158655703,0.00479270052165,"(1.2184696791468346e-07, 0.0, 0.0, 0.0, 1.2184696791468346e-07, 0.0, 0.0, 0.0, 1.2184696791468346e-07)",0.0,0.0,0.0,"(-1.0, 0.0, 0.0, 0.0, 8.999999999999999e-08, 0.0, 0.0, 0.0, 8.999999999999999e-08)"
1970/01/01/01:00:15.206000,236,15,206000000,base_link,0.00110963391347,-0.00330870911944,-0.696941418356,-0.71711965672,"(1.0, 0.0, 0.0, 0.0, 1.0, 0.0, 0.0, 0.0, 1.0)",0.00790821295232,0.00179780740291,9.68620297499e-05,"(1.2184696791468346e-07, 0.0, 0.0, 0.0, 1.2184696791468346e-07, 0.0, 0.0, 0.0, 1.2184696791468346e-07)",0.0,0.0,0.0,"(-1.0, 0.0, 0.0, 0.0, 8.999999999999999e-08, 0.0, 0.0, 0.0, 8.999999999999999e-08)"
1970/01/01/01:00:15.226000,237,15,226000000,base_link,0.00107102690633,-0.00333211593152,-0.696898994918,-0.717160815751,"(1.0, 0.0, 0.0, 0.0, 1.0, 0.0, 0.0, 0.0, 1.0)",-0.00132465688512,-0.00276382244192,-0.00743331061676,"(1.2184696791468346e-07, 0.0, 0.0, 0.0, 1.2184696791468346e-07, 0.0, 0.0, 0.0, 1.2184696791468346e-07)",0.0,0.0,0.0,"(-1.0, 0.0, 0.0, 0.0, 8.999999999999999e-08, 0.0, 0.0, 0.0, 8.999999999999999e-08)"
1970/01/01/01:00:15.246000,238,15,246000000,base_link,0.00101504239134,-0.00340062991431,-0.696946227706,-0.717114594488,"(1.0, 0.0, 0.0, 0.0, 1.0, 0.0, 0.0, 0.0, 1.0)",0.00950482860208,0.00391178764403,0.00395641196519,"(1.2184696791468346e-07, 0.0, 0.0, 0.0, 1.2184696791468346e-07, 0.0, 0.0, 0.0, 1.2184696791468346e-07)",0.0,0.0,0.0,"(-1.0, 0.0, 0.0, 0.0, 8.999999999999999e-08, 0.0, 0.0, 0.0, 8.999999999999999e-08)"
1970/01/01/01:00:15.266000,239,15,266000000,base_link,0.000997128416681,-0.0034496206043,-0.697003199709,-0.717059055478,"(1.0, 0.0, 0.0, 0.0, 1.0, 0.0, 0.0, 0.0, 1.0)",0.0049706264399,-0.00218130089343,0.00941686239094,"(1.2184696791468346e-07, 0.0, 0.0, 0.0, 1.2184696791468346e-07, 0.0, 0.0, 0.0, 1.2184696791468346e-07)",0.0,0.0,0.0,"(-1.0, 0.0, 0.0, 0.0, 8.999999999999999e-08, 0.0, 0.0, 0.0, 8.999999999999999e-08)"
1970/01/01/01:00:15.286000,240,15,286000000,base_link,0.00100560989372,-0.00338917897777,-0.696959060104,-0.717102183558,"(1.0, 0.0, 0.0, 0.0, 1.0, 0.0, 0.0, 0.0, 1.0)",5.85383968428e-05,-0.00390032026917,-0.0144427511841,"(1.2184696791468346e-07, 0.0, 0.0, 0.0, 1.2184696791468346e-07, 0.0, 0.0, 0.0, 1.2184696791468346e-07)",0.0,0.0,0.0,"(-1.0, 0.0, 0.0, 0.0, 8.999999999999999e-08, 0.0, 0.0, 0.0, 8.999999999999999e-08)"
1970/01/01/01:00:15.306000,241,15,306000000,base_link,0.0010214035197,-0.00343123025501,-0.696956458195,-0.71710461688,"(1.0, 0.0, 0.0, 0.0, 1.0, 0.0, 0.0, 0.0, 1.0)",0.00235331943259,0.0049603083171,0.00197676476091,"(1.2184696791468346e-07, 0.0, 0.0, 0.0, 1.2184696791468346e-07, 0.0, 0.0, 0.0, 1.2184696791468346e-07)",0.0,0.0,0.0,"(-1.0, 0.0, 0.0, 0.0, 8.999999999999999e-08, 0.0, 0.0, 0.0, 8.999999999999999e-08)"
1970/01/01/01:00:15.326000,242,15,326000000,base_link,0.00100382350942,-0.0034847397951,-0.696962713051,-0.717098193437,"(1.0, 0.0, 0.0, 0.0, 1.0, 0.0, 0.0, 0.0, 1.0)",0.00790118798614,-0.00184799707495,0.0011180783622,"(1.2184696791468346e-07, 0.0, 0.0, 0.0, 1.2184696791468346e-07, 0.0, 0.0, 0.0, 1.2184696791468346e-07)",0.0,0.0,0.0,"(-1.0, 0.0, 0.0, 0.0, 8.999999999999999e-08, 0.0, 0.0, 0.0, 8.999999999999999e-08)"
1970/01/01/01:00:15.346000,243,15,346000000,base_link,0.000986220285451,-0.00349771180482,-0.696920593203,-0.71713904888,"(1.0, 0.0, 0.0, 0.0, 1.0, 0.0, 0.0, 0.0, 1.0)",-0.0095643484965,0.00125698838383,-0.00754745397717,"(1.2184696791468346e-07, 0.0, 0.0, 0.0, 1.2184696791468346e-07, 0.0, 0.0, 0.0, 1.2184696791468346e-07)",0.0,0.0,0.0,"(-1.0, 0.0, 0.0, 0.0, 8.999999999999999e-08, 0.0, 0.0, 0.0, 8.999999999999999e-08)"
1970/01/01/01:00:15.366000,244,15,366000000,base_link,0.000996799967608,-0.00344523650888,-0.696964528658,-0.717096630711,"(1.0, 0.0, 0.0, 0.0, 1.0, 0.0, 0.0, 0.0, 1.0)",-0.00258531910367,-0.00534686865285,0.00753952562809,"(1.2184696791468346e-07, 0.0, 0.0, 0.0, 1.2184696791468346e-07, 0.0, 0.0, 0.0, 1.2184696791468346e-07)",0.0,0.0,0.0,"(-1.0, 0.0, 0.0, 0.0, 8.999999999999999e-08, 0.0, 0.0, 0.0, 8.999999999999999e-08)"
1970/01/01/01:00:15.386000,245,15,385000000,base_link,0.00103720282563,-0.00349503844339,-0.697023164144,-0.717039343924,"(1.0, 0.0, 0.0, 0.0, 1.0, 0.0, 0.0, 0.0, 1.0)",0.00274016428739,0.00418515130877,0.00707688322291,"(1.2184696791468346e-07, 0.0, 0.0, 0.0, 1.2184696791468346e-07, 0.0, 0.0, 0.0, 1.2184696791468346e-07)",0.0,0.0,0.0,"(-1.0, 0.0, 0.0, 0.0, 8.999999999999999e-08, 0.0, 0.0, 0.0, 8.999999999999999e-08)"
1970/01/01/01:00:15.406000,246,15,406000000,base_link,0.00107426990876,-0.00348094139269,-0.69701144271,-0.717050728183,"(1.0, 0.0, 0.0, 0.0, 1.0, 0.0, 0.0, 0.0, 1.0)",-0.00925213191658,-0.00212664855644,0.00218190415762,"(1.2184696791468346e-07, 0.0, 0.0, 0.0, 1.2184696791468346e-07, 0.0, 0.0, 0.0, 1.2184696791468346e-07)",0.0,0.0,0.0,"(-1.0, 0.0, 0.0, 0.0, 8.999999999999999e-08, 0.0, 0.0, 0.0, 8.999999999999999e-08)"
1970/01/01/01:00:15.426000,247,15,426000000,base_link,0.00113045527982,-0.00351488244736,-0.69709536433,-0.7169689982,"(1.0, 0.0, 0.0, 0.0, 1.0, 0.0, 0.0, 0.0, 1.0)",0.000508095487021,0.00845596194267,0.0130056748167,"(1.2184696791468346e-07, 0.0, 0.0, 0.0, 1.2184696791468346e-07, 0.0, 0.0, 0.0, 1.2184696791468346e-07)",0.0,0.0,0.0,"(-1.0, 0.0, 0.0, 0.0, 8.999999999999999e-08, 0.0, 0.0, 0.0, 8.999999999999999e-08)"
1970/01/01/01:00:15.446000,248,15,445000000,base_link,0.00115164189141,-0.00361452525282,-0.697099534233,-0.716964322534,"(1.0, 0.0, 0.0, 0.0, 1.0, 0.0, 0.0, 0.0, 1.0)",0.00599043257535,0.00967356748879,1.65228266269e-06,"(1.2184696791468346e-07, 0.0, 0.0, 0.0, 1.2184696791468346e-07, 0.0, 0.0, 0.0, 1.2184696791468346e-07)",0.0,0.0,0.0,"(-1.0, 0.0, 0.0, 0.0, 8.999999999999999e-08, 0.0, 0.0, 0.0, 8.999999999999999e-08)"
1970/01/01/01:00:15.466000,249,15,466000000,base_link,0.00122453091464,-0.00368267934104,-0.697091576382,-0.716971606036,"(1.0, 0.0, 0.0, 0.0, 1.0, 0.0, 0.0, 0.0, 1.0)",-0.0103634176776,0.00606827437878,0.00323267583735,"(1.2184696791468346e-07, 0.0, 0.0, 0.0, 1.2184696791468346e-07, 0.0, 0.0, 0.0, 1.2184696791468346e-07)",0.0,0.0,0.0,"(-1.0, 0.0, 0.0, 0.0, 8.999999999999999e-08, 0.0, 0.0, 0.0, 8.999999999999999e-08)"
1970/01/01/01:00:15.486000,250,15,486000000,base_link,0.00127201345539,-0.0036055721756,-0.697125193103,-0.716939169426,"(1.0, 0.0, 0.0, 0.0, 1.0, 0.0, 0.0, 0.0, 1.0)",-0.00230529648252,-0.00395617866889,-0.0032722572796,"(1.2184696791468346e-07, 0.0, 0.0, 0.0, 1.2184696791468346e-07, 0.0, 0.0, 0.0, 1.2184696791468346e-07)",0.0,0.0,0.0,"(-1.0, 0.0, 0.0, 0.0, 8.999999999999999e-08, 0.0, 0.0, 0.0, 8.999999999999999e-08)"
1970/01/01/01:00:15.506000,251,15,506000000,base_link,0.00126762499711,-0.00366269589027,-0.697109787113,-0.716954069654,"(1.0, 0.0, 0.0, 0.0, 1.0, 0.0, 0.0, 0.0, 1.0)",-0.00103178375866,0.00440695881844,-0.00354889221489,"(1.2184696791468346e-07, 0.0, 0.0, 0.0, 1.2184696791468346e-07, 0.0, 0.0, 0.0, 1.2184696791468346e-07)",0.0,0.0,0.0,"(-1.0, 0.0, 0.0, 0.0, 8.999999999999999e-08, 0.0, 0.0, 0.0, 8.999999999999999e-08)"
1970/01/01/01:00:15.526000,252,15,526000000,base_link,0.00127835812014,-0.00364270494855,-0.697016014985,-0.717045312972,"(1.0, 0.0, 0.0, 0.0, 1.0, 0.0, 0.0, 0.0, 1.0)",-0.00167427840643,-0.00374267110601,-0.0125102484599,"(1.2184696791468346e-07, 0.0, 0.0, 0.0, 1.2184696791468346e-07, 0.0, 0.0, 0.0, 1.2184696791468346e-07)",0.0,0.0,0.0,"(-1.0, 0.0, 0.0, 0.0, 8.999999999999999e-08, 0.0, 0.0, 0.0, 8.999999999999999e-08)"
1970/01/01/01:00:15.546000,253,15,546000000,base_link,0.00125997880146,-0.00366167366455,-0.69697512859,-0.71708493496,"(1.0, 0.0, 0.0, 0.0, 1.0, 0.0, 0.0, 0.0, 1.0)",0.00707473605871,-0.00446797022596,-0.00429510697722,"(1.2184696791468346e-07, 0.0, 0.0, 0.0, 1.2184696791468346e-07, 0.0, 0.0, 0.0, 1.2184696791468346e-07)",0.0,0.0,0.0,"(-1.0, 0.0, 0.0, 0.0, 8.999999999999999e-08, 0.0, 0.0, 0.0, 8.999999999999999e-08)"
1970/01/01/01:00:15.566000,254,15,566000000,base_link,0.00115823548598,-0.00361088457183,-0.696979734451,-0.717080834862,"(1.0, 0.0, 0.0, 0.0, 1.0, 0.0, 0.0, 0.0, 1.0)",-0.00171937793493,-0.00854906253517,-0.00226251641288,"(1.2184696791468346e-07, 0.0, 0.0, 0.0, 1.2184696791468346e-07, 0.0, 0.0, 0.0, 1.2184696791468346e-07)",0.0,0.0,0.0,"(-1.0, 0.0, 0.0, 0.0, 8.999999999999999e-08, 0.0, 0.0, 0.0, 8.999999999999999e-08)"
1970/01/01/01:00:15.586000,255,15,586000000,base_link,0.00120422469474,-0.00363410345177,-0.69696471766,-0.717095177303,"(1.0, 0.0, 0.0, 0.0, 1.0, 0.0, 0.0, 0.0, 1.0)",-0.00124113040511,0.0101656187326,-0.00418728776276,"(1.2184696791468346e-07, 0.0, 0.0, 0.0, 1.2184696791468346e-07, 0.0, 0.0, 0.0, 1.2184696791468346e-07)",0.0,0.0,0.0,"(-1.0, 0.0, 0.0, 0.0, 8.999999999999999e-08, 0.0, 0.0, 0.0, 8.999999999999999e-08)"
1970/01/01/01:00:15.606000,256,15,606000000,base_link,0.00128002481397,-0.00362910279405,-0.696934340978,-0.717124711049,"(1.0, 0.0, 0.0, 0.0, 1.0, 0.0, 0.0, 0.0, 1.0)",-0.00493330974132,-0.00176657165866,-0.00601481180638,"(1.2184696791468346e-07, 0.0, 0.0, 0.0, 1.2184696791468346e-07, 0.0, 0.0, 0.0, 1.2184696791468346e-07)",0.0,0.0,0.0,"(-1.0, 0.0, 0.0, 0.0, 8.999999999999999e-08, 0.0, 0.0, 0.0, 8.999999999999999e-08)"
1970/01/01/01:00:15.626000,257,15,626000000,base_link,0.00129031144382,-0.0036175725029,-0.69693552109,-0.717123530937,"(1.0, 0.0, 0.0, 0.0, 1.0, 0.0, 0.0, 0.0, 1.0)",-0.00115119677503,-0.00158790021669,-0.000823800335638,"(1.2184696791468346e-07, 0.0, 0.0, 0.0, 1.2184696791468346e-07, 0.0, 0.0, 0.0, 1.2184696791468346e-07)",0.0,0.0,0.0,"(-1.0, 0.0, 0.0, 0.0, 8.999999999999999e-08, 0.0, 0.0, 0.0, 8.999999999999999e-08)"
1970/01/01/01:00:15.646000,258,15,646000000,base_link,0.00133912761952,-0.00357786268066,-0.696947525697,-0.717112032091,"(1.0, 0.0, 0.0, 0.0, 1.0, 0.0, 0.0, 0.0, 1.0)",-0.00635180529207,-0.000151019426994,0.00166787009221,"(1.2184696791468346e-07, 0.0, 0.0, 0.0, 1.2184696791468346e-07, 0.0, 0.0, 0.0, 1.2184696791468346e-07)",0.0,0.0,0.0,"(-1.0, 0.0, 0.0, 0.0, 8.999999999999999e-08, 0.0, 0.0, 0.0, 8.999999999999999e-08)"
1970/01/01/01:00:15.666000,259,15,666000000,base_link,0.0013676074469,-0.0035634299369,-0.69696137884,-0.717098600417,"(1.0, 0.0, 0.0, 0.0, 1.0, 0.0, 0.0, 0.0, 1.0)",-0.00193941080943,-0.00134422397241,0.00266429199837,"(1.2184696791468346e-07, 0.0, 0.0, 0.0, 1.2184696791468346e-07, 0.0, 0.0, 0.0, 1.2184696791468346e-07)",0.0,0.0,0.0,"(-1.0, 0.0, 0.0, 0.0, 8.999999999999999e-08, 0.0, 0.0, 0.0, 8.999999999999999e-08)"
1970/01/01/01:00:15.686000,260,15,686000000,base_link,0.00140520070709,-0.00357752451805,-0.696956844102,-0.71710279798,"(1.0, 0.0, 0.0, 0.0, 1.0, 0.0, 0.0, 0.0, 1.0)",0.000394261529436,0.00247056223452,-0.00317103276029,"(1.2184696791468346e-07, 0.0, 0.0, 0.0, 1.2184696791468346e-07, 0.0, 0.0, 0.0, 1.2184696791468346e-07)",0.0,0.0,0.0,"(-1.0, 0.0, 0.0, 0.0, 8.999999999999999e-08, 0.0, 0.0, 0.0, 8.999999999999999e-08)"
1970/01/01/01:00:15.706000,261,15,706000000,base_link,0.00137183563191,-0.00353988894637,-0.696969617231,-0.7170906992,"(1.0, 0.0, 0.0, 0.0, 1.0, 0.0, 0.0, 0.0, 1.0)",0.00328128295951,-0.000913144147489,0.00137547403574,"(1.2184696791468346e-07, 0.0, 0.0, 0.0, 1.2184696791468346e-07, 0.0, 0.0, 0.0, 1.2184696791468346e-07)",0.0,0.0,0.0,"(-1.0, 0.0, 0.0, 0.0, 8.999999999999999e-08, 0.0, 0.0, 0.0, 8.999999999999999e-08)"
1970/01/01/01:00:15.726000,262,15,726000000,base_link,0.00141241876649,-0.00348515961722,-0.696959753552,-0.717100478586,"(1.0, 0.0, 0.0, 0.0, 1.0, 0.0, 0.0, 0.0, 1.0)",-0.00603693304583,1.40136107802e-05,0.00216741859913,"(1.2184696791468346e-07, 0.0, 0.0, 0.0, 1.2184696791468346e-07, 0.0, 0.0, 0.0, 1.2184696791468346e-07)",0.0,0.0,0.0,"(-1.0, 0.0, 0.0, 0.0, 8.999999999999999e-08, 0.0, 0.0, 0.0, 8.999999999999999e-08)"
1970/01/01/01:00:15.746000,263,15,746000000,base_link,0.00144709549769,-0.00352015985841,-0.696934928399,-0.717124376508,"(1.0, 0.0, 0.0, 0.0, 1.0, 0.0, 0.0, 0.0, 1.0)",-0.00128746428527,0.00414808653295,-0.00662105344236,"(1.2184696791468346e-07, 0.0, 0.0, 0.0, 1.2184696791468346e-07, 0.0, 0.0, 0.0, 1.2184696791468346e-07)",0.0,0.0,0.0,"(-1.0, 0.0, 0.0, 0.0, 8.999999999999999e-08, 0.0, 0.0, 0.0, 8.999999999999999e-08)"
1970/01/01/01:00:15.766000,264,15,766000000,base_link,0.00141770860757,-0.00347060010365,-0.696882286986,-0.717175753516,"(1.0, 0.0, 0.0, 0.0, 1.0, 0.0, 0.0, 0.0, 1.0)",-0.00217305170372,-0.00864321831614,-0.00928006693721,"(1.2184696791468346e-07, 0.0, 0.0, 0.0, 1.2184696791468346e-07, 0.0, 0.0, 0.0, 1.2184696791468346e-07)",0.0,0.0,0.0,"(-1.0, 0.0, 0.0, 0.0, 8.999999999999999e-08, 0.0, 0.0, 0.0, 8.999999999999999e-08)"
1970/01/01/01:00:15.786000,265,15,786000000,base_link,0.00136587111198,-0.0035863295874,-0.696906954087,-0.71715142359,"(1.0, 0.0, 0.0, 0.0, 1.0, 0.0, 0.0, 0.0, 1.0)",0.00975035130978,0.00663045560941,0.003128612414,"(1.2184696791468346e-07, 0.0, 0.0, 0.0, 1.2184696791468346e-07, 0.0, 0.0, 0.0, 1.2184696791468346e-07)",0.0,0.0,0.0,"(-1.0, 0.0, 0.0, 0.0, 8.999999999999999e-08, 0.0, 0.0, 0.0, 8.999999999999999e-08)"
1970/01/01/01:00:15.806000,266,15,806000000,base_link,0.00138661781585,-0.0036144294346,-0.696878321889,-0.71717895997,"(1.0, 0.0, 0.0, 0.0, 1.0, 0.0, 0.0, 0.0, 1.0)",-0.00160137086641,-0.00431323656812,-0.00482184207067,"(1.2184696791468346e-07, 0.0, 0.0, 0.0, 1.2184696791468346e-07, 0.0, 0.0, 0.0, 1.2184696791468346e-07)",0.0,0.0,0.0,"(-1.0, 0.0, 0.0, 0.0, 8.999999999999999e-08, 0.0, 0.0, 0.0, 8.999999999999999e-08)"
1970/01/01/01:00:15.826000,267,15,826000000,base_link,0.00141974235764,-0.00364022124793,-0.696928815789,-0.717129814769,"(1.0, 0.0, 0.0, 0.0, 1.0, 0.0, 0.0, 0.0, 1.0)",-0.003923967015,0.00112395896576,0.00967450812459,"(1.2184696791468346e-07, 0.0, 0.0, 0.0, 1.2184696791468346e-07, 0.0, 0.0, 0.0, 1.2184696791468346e-07)",0.0,0.0,0.0,"(-1.0, 0.0, 0.0, 0.0, 8.999999999999999e-08, 0.0, 0.0, 0.0, 8.999999999999999e-08)"
1970/01/01/01:00:15.846000,268,15,846000000,base_link,0.0013151578342,-0.00367188513801,-0.696953204985,-0.717106099922,"(1.0, 0.0, 0.0, 0.0, 1.0, 0.0, 0.0, 0.0, 1.0)",0.0112554589286,-0.00735568255186,-0.00128142745234,"(1.2184696791468346e-07, 0.0, 0.0, 0.0, 1.2184696791468346e-07, 0.0, 0.0, 0.0, 1.2184696791468346e-07)",0.0,0.0,0.0,"(-1.0, 0.0, 0.0, 0.0, 8.999999999999999e-08, 0.0, 0.0, 0.0, 8.999999999999999e-08)"
1970/01/01/01:00:15.866000,269,15,866000000,base_link,0.00117329343542,-0.00367599947714,-0.696943945191,-0.717115359717,"(1.0, 0.0, 0.0, 0.0, 1.0, 0.0, 0.0, 0.0, 1.0)",0.0046588270925,-0.00469406507909,-0.00131718278863,"(1.2184696791468346e-07, 0.0, 0.0, 0.0, 1.2184696791468346e-07, 0.0, 0.0, 0.0, 1.2184696791468346e-07)",0.0,0.0,0.0,"(-1.0, 0.0, 0.0, 0.0, 8.999999999999999e-08, 0.0, 0.0, 0.0, 8.999999999999999e-08)"
1970/01/01/01:00:15.886000,270,15,886000000,base_link,0.0012047914546,-0.00370231936086,-0.696938265245,-0.717120702488,"(1.0, 0.0, 0.0, 0.0, 1.0, 0.0, 0.0, 0.0, 1.0)",-0.00240640994161,0.0062533323653,-0.00061343429843,"(1.2184696791468346e-07, 0.0, 0.0, 0.0, 1.2184696791468346e-07, 0.0, 0.0, 0.0, 1.2184696791468346e-07)",0.0,0.0,0.0,"(-1.0, 0.0, 0.0, 0.0, 8.999999999999999e-08, 0.0, 0.0, 0.0, 8.999999999999999e-08)"
1970/01/01/01:00:15.906000,271,15,906000000,base_link,0.0011429782445,-0.00374457412835,-0.696974142749,-0.71708566792,"(1.0, 0.0, 0.0, 0.0, 1.0, 0.0, 0.0, 0.0, 1.0)",0.0133471153677,-0.00533759081736,0.0137018952519,"(1.2184696791468346e-07, 0.0, 0.0, 0.0, 1.2184696791468346e-07, 0.0, 0.0, 0.0, 1.2184696791468346e-07)",0.0,0.0,0.0,"(-1.0, 0.0, 0.0, 0.0, 8.999999999999999e-08, 0.0, 0.0, 0.0, 8.999999999999999e-08)"
1970/01/01/01:00:15.926000,272,15,926000000,base_link,0.00112622964666,-0.00372979754204,-0.697022183571,-0.717039060091,"(1.0, 0.0, 0.0, 0.0, 1.0, 0.0, 0.0, 0.0, 1.0)",0.000926353794057,-0.0072559947148,0.00207416247576,"(1.2184696791468346e-07, 0.0, 0.0, 0.0, 1.2184696791468346e-07, 0.0, 0.0, 0.0, 1.2184696791468346e-07)",0.0,0.0,0.0,"(-1.0, 0.0, 0.0, 0.0, 8.999999999999999e-08, 0.0, 0.0, 0.0, 8.999999999999999e-08)"
1970/01/01/01:00:15.946000,273,15,946000000,base_link,0.00109705250296,-0.00368606985744,-0.697054931014,-0.717007408467,"(1.0, 0.0, 0.0, 0.0, 1.0, 0.0, 0.0, 0.0, 1.0)",-0.00230146106333,-0.00185624731239,0.00623809080571,"(1.2184696791468346e-07, 0.0, 0.0, 0.0, 1.2184696791468346e-07, 0.0, 0.0, 0.0, 1.2184696791468346e-07)",0.0,0.0,0.0,"(-1.0, 0.0, 0.0, 0.0, 8.999999999999999e-08, 0.0, 0.0, 0.0, 8.999999999999999e-08)"
1970/01/01/01:00:15.966000,274,15,966000000,base_link,0.00106754435833,-0.0037014400393,-0.697102762419,-0.716961010055,"(1.0, 0.0, 0.0, 0.0, 1.0, 0.0, 0.0, 0.0, 1.0)",0.00103452149779,-0.00165469630156,0.00551074417308,"(1.2184696791468346e-07, 0.0, 0.0, 0.0, 1.2184696791468346e-07, 0.0, 0.0, 0.0, 1.2184696791468346e-07)",0.0,0.0,0.0,"(-1.0, 0.0, 0.0, 0.0, 8.999999999999999e-08, 0.0, 0.0, 0.0, 8.999999999999999e-08)"
1970/01/01/01:00:15.986000,275,15,986000000,base_link,0.00102038326962,-0.00374767817789,-0.69712184638,-0.716942263268,"(1.0, 0.0, 0.0, 0.0, 1.0, 0.0, 0.0, 0.0, 1.0)",0.00909550953656,-0.000671195331961,0.000429392792284,"(1.2184696791468346e-07, 0.0, 0.0, 0.0, 1.2184696791468346e-07, 0.0, 0.0, 0.0, 1.2184696791468346e-07)",0.0,0.0,0.0,"(-1.0, 0.0, 0.0, 0.0, 8.999999999999999e-08, 0.0, 0.0, 0.0, 8.999999999999999e-08)"
1970/01/01/01:00:16.006000,276,16,6000000,base_link,0.00101422357356,-0.00383513782763,-0.697114826295,-0.71694852471,"(1.0, 0.0, 0.0, 0.0, 1.0, 0.0, 0.0, 0.0, 1.0)",0.00197530444711,0.00406588148326,-0.00131108867936,"(1.2184696791468346e-07, 0.0, 0.0, 0.0, 1.2184696791468346e-07, 0.0, 0.0, 0.0, 1.2184696791468346e-07)",0.0,0.0,0.0,"(-1.0, 0.0, 0.0, 0.0, 8.999999999999999e-08, 0.0, 0.0, 0.0, 8.999999999999999e-08)"
1970/01/01/01:00:16.026000,277,16,26000000,base_link,0.0010475479013,-0.00386374170834,-0.69715204789,-0.716912230346,"(1.0, 0.0, 0.0, 0.0, 1.0, 0.0, 0.0, 0.0, 1.0)",0.00280482298695,0.00234494102187,0.000450725434348,"(1.2184696791468346e-07, 0.0, 0.0, 0.0, 1.2184696791468346e-07, 0.0, 0.0, 0.0, 1.2184696791468346e-07)",0.0,0.0,0.0,"(-1.0, 0.0, 0.0, 0.0, 8.999999999999999e-08, 0.0, 0.0, 0.0, 8.999999999999999e-08)"
1970/01/01/01:00:16.046000,278,16,46000000,base_link,0.00110698714077,-0.0039153580976,-0.697086981058,-0.716975021248,"(1.0, 0.0, 0.0, 0.0, 1.0, 0.0, 0.0, 0.0, 1.0)",-0.0035678264685,0.0120506761596,-0.0118744596839,"(1.2184696791468346e-07, 0.0, 0.0, 0.0, 1.2184696791468346e-07, 0.0, 0.0, 0.0, 1.2184696791468346e-07)",0.0,0.0,0.0,"(-1.0, 0.0, 0.0, 0.0, 8.999999999999999e-08, 0.0, 0.0, 0.0, 8.999999999999999e-08)"
1970/01/01/01:00:16.066000,279,16,66000000,base_link,0.00107121368601,-0.00394385364773,-0.697064124954,-0.716997203002,"(1.0, 0.0, 0.0, 0.0, 1.0, 0.0, 0.0, 0.0, 1.0)",0.00557489227504,-0.00525498623028,-0.000832107907627,"(1.2184696791468346e-07, 0.0, 0.0, 0.0, 1.2184696791468346e-07, 0.0, 0.0, 0.0, 1.2184696791468346e-07)",0.0,0.0,0.0,"(-1.0, 0.0, 0.0, 0.0, 8.999999999999999e-08, 0.0, 0.0, 0.0, 8.999999999999999e-08)"
1970/01/01/01:00:16.086000,280,16,86000000,base_link,0.00100101251219,-0.00390527578118,-0.697048336349,-0.717012907313,"(1.0, 0.0, 0.0, 0.0, 1.0, 0.0, 0.0, 0.0, 1.0)",-0.000666103092954,-0.0110617987812,-0.00345420371741,"(1.2184696791468346e-07, 0.0, 0.0, 0.0, 1.2184696791468346e-07, 0.0, 0.0, 0.0, 1.2184696791468346e-07)",0.0,0.0,0.0,"(-1.0, 0.0, 0.0, 0.0, 8.999999999999999e-08, 0.0, 0.0, 0.0, 8.999999999999999e-08)"
1970/01/01/01:00:16.106000,281,16,106000000,base_link,0.00093798107706,-0.00394850939277,-0.697117891162,-0.716945122669,"(1.0, 0.0, 0.0, 0.0, 1.0, 0.0, 0.0, 0.0, 1.0)",0.00157696148381,0.001151898643,0.0083887418732,"(1.2184696791468346e-07, 0.0, 0.0, 0.0, 1.2184696791468346e-07, 0.0, 0.0, 0.0, 1.2184696791468346e-07)",0.0,0.0,0.0,"(-1.0, 0.0, 0.0, 0.0, 8.999999999999999e-08, 0.0, 0.0, 0.0, 8.999999999999999e-08)"
