time,.header.seq,.header.stamp.secs,.header.stamp.nsecs,.header.frame_id,.orientation.x,.orientation.y,.orientation.z,.orientation.w,.orientation_covariance,.angular_velocity.x,.angular_velocity.y,.angular_velocity.z,.angular_velocity_covariance,.linear_acceleration.x,.linear_acceleration.y,.linear_acceleration.z,.linear_acceleration_covariance
1970/01/01/01:00:10.514000,0,10,511000000,base_link,0.000262418350172,-9.60757303266e-05,-0.674718892837,-0.738074750655,"(1.0, 0.0, 0.0, 0.0, 1.0, 0.0, 0.0, 0.0, 1.0)",-0.000215557636693,-0.00520453602076,-0.00367629574612,"(1.2184696791468346e-07, 0.0, 0.0, 0.0, 1.2184696791468346e-07, 0.0, 0.0, 0.0, 1.2184696791468346e-07)",0.0,0.0,0.0,"(-1.0, 0.0, 0.0, 0.0, 8.999999999999999e-08, 0.0, 0.0, 0.0, 8.999999999999999e-08)"
1970/01/01/01:00:10.524000,1,10,523000000,base_link,0.000262418359005,-9.60757373935e-05,-0.674718890569,-0.738074744478,"(1.0, 0.0, 0.0, 0.0, 1.0, 0.0, 0.0, 0.0, 1.0)",-0.000215557636693,-0.00520453602076,-0.00367629574612,"(1.2184696791468346e-07, 0.0, 0.0, 0.0, 1.2184696791468346e-07, 0.0, 0.0, 0.0, 1.2184696791468346e-07)",0.0,0.0,0.0,"(-1.0, 0.0, 0.0, 0.0, 8.999999999999999e-08, 0.0, 0.0, 0.0, 8.999999999999999e-08)"
1970/01/01/01:00:10.532000,2,10,532000000,base_link,0.000266854582344,-3.1258000287e-05,-0.674788904386,-0.738010715513,"(1.0, 0.0, 0.0, 0.0, 1.0, 0.0, 0.0, 0.0, 1.0)",-0.00317526352592,-0.00600691372529,0.00880893040448,"(1.2184696791468346e-07, 0.0, 0.0, 0.0, 1.2184696791468346e-07, 0.0, 0.0, 0.0, 1.2184696791468346e-07)",0.0,0.0,0.0,"(-1.0, 0.0, 0.0, 0.0, 8.999999999999999e-08, 0.0, 0.0, 0.0, 8.999999999999999e-08)"
1970/01/01/01:00:10.550000,3,10,551000000,base_link,0.000374195670205,-2.49143233596e-05,-0.674941681444,-0.737871088272,"(1.0, 0.0, 0.0, 0.0, 1.0, 0.0, 0.0, 0.0, 1.0)",-0.0087217008695,0.00188541016541,0.0367524921894,"(1.2184696791468346e-07, 0.0, 0.0, 0.0, 1.2184696791468346e-07, 0.0, 0.0, 0.0, 1.2184696791468346e-07)",0.0,0.0,0.0,"(-1.0, 0.0, 0.0, 0.0, 8.999999999999999e-08, 0.0, 0.0, 0.0, 8.999999999999999e-08)"
1970/01/01/01:00:10.572000,4,10,572000000,base_link,0.000349386508171,-0.000133195936255,-0.675539892738,-0.737323368902,"(1.0, 0.0, 0.0, 0.0, 1.0, 0.0, 0.0, 0.0, 1.0)",0.00941772572696,0.00587708503008,0.0889149159193,"(1.2184696791468346e-07, 0.0, 0.0, 0.0, 1.2184696791468346e-07, 0.0, 0.0, 0.0, 1.2184696791468346e-07)",0.0,0.0,0.0,"(-1.0, 0.0, 0.0, 0.0, 8.999999999999999e-08, 0.0, 0.0, 0.0, 8.999999999999999e-08)"
1970/01/01/01:00:10.592000,5,10,592000000,base_link,0.000376764703779,-0.000145617289577,-0.676616620911,-0.736335486286,"(1.0, 0.0, 0.0, 0.0, 1.0, 0.0, 0.0, 0.0, 1.0)",0.00116772670299,0.000219734851271,0.156962543726,"(1.2184696791468346e-07, 0.0, 0.0, 0.0, 1.2184696791468346e-07, 0.0, 0.0, 0.0, 1.2184696791468346e-07)",0.0,0.0,0.0,"(-1.0, 0.0, 0.0, 0.0, 8.999999999999999e-08, 0.0, 0.0, 0.0, 8.999999999999999e-08)"
1970/01/01/01:00:10.614000,6,10,614000000,base_link,0.000361613210142,-0.000122605470431,-0.677915268047,-0.735140014635,"(1.0, 0.0, 0.0, 0.0, 1.0, 0.0, 0.0, 0.0, 1.0)",0.000485237804241,-0.00486959749833,0.186796158552,"(1.2184696791468346e-07, 0.0, 0.0, 0.0, 1.2184696791468346e-07, 0.0, 0.0, 0.0, 1.2184696791468346e-07)",0.0,0.0,0.0,"(-1.0, 0.0, 0.0, 0.0, 8.999999999999999e-08, 0.0, 0.0, 0.0, 8.999999999999999e-08)"
1970/01/01/01:00:10.632000,7,10,631000000,base_link,0.000372847166558,-0.000108848630006,-0.679158987302,-0.733991210083,"(1.0, 0.0, 0.0, 0.0, 1.0, 0.0, 0.0, 0.0, 1.0)",-0.00139143096749,0.000643720966764,0.172351807356,"(1.2184696791468346e-07, 0.0, 0.0, 0.0, 1.2184696791468346e-07, 0.0, 0.0, 0.0, 1.2184696791468346e-07)",0.0,0.0,0.0,"(-1.0, 0.0, 0.0, 0.0, 8.999999999999999e-08, 0.0, 0.0, 0.0, 8.999999999999999e-08)"
1970/01/01/01:00:10.652000,8,10,650000000,base_link,0.000446508405254,-0.000111647248659,-0.68037252678,-0.732866347575,"(1.0, 0.0, 0.0, 0.0, 1.0, 0.0, 0.0, 0.0, 1.0)",-0.00564459431916,0.00588094349951,0.165024742484,"(1.2184696791468346e-07, 0.0, 0.0, 0.0, 1.2184696791468346e-07, 0.0, 0.0, 0.0, 1.2184696791468346e-07)",0.0,0.0,0.0,"(-1.0, 0.0, 0.0, 0.0, 8.999999999999999e-08, 0.0, 0.0, 0.0, 8.999999999999999e-08)"
1970/01/01/01:00:10.672000,9,10,671000000,base_link,0.000431497562319,-5.40866926104e-05,-0.681479281948,-0.731837395489,"(1.0, 0.0, 0.0, 0.0, 1.0, 0.0, 0.0, 0.0, 1.0)",-0.001783466083,-0.006673484575,0.152823105454,"(1.2184696791468346e-07, 0.0, 0.0, 0.0, 1.2184696791468346e-07, 0.0, 0.0, 0.0, 1.2184696791468346e-07)",0.0,0.0,0.0,"(-1.0, 0.0, 0.0, 0.0, 8.999999999999999e-08, 0.0, 0.0, 0.0, 8.999999999999999e-08)"
1970/01/01/01:00:10.692000,10,10,692000000,base_link,0.000497405046529,-2.39031900062e-05,-0.682540128662,-0.730847945536,"(1.0, 0.0, 0.0, 0.0, 1.0, 0.0, 0.0, 0.0, 1.0)",-0.00236773211509,0.00144255894702,0.138819694519,"(1.2184696791468346e-07, 0.0, 0.0, 0.0, 1.2184696791468346e-07, 0.0, 0.0, 0.0, 1.2184696791468346e-07)",0.0,0.0,0.0,"(-1.0, 0.0, 0.0, 0.0, 8.999999999999999e-08, 0.0, 0.0, 0.0, 8.999999999999999e-08)"
1970/01/01/01:00:10.715000,11,10,715000000,base_link,0.000546890859094,-3.00810783451e-07,-0.683386034351,-0.730056999338,"(1.0, 0.0, 0.0, 0.0, 1.0, 0.0, 0.0, 0.0, 1.0)",-0.00645664613694,-0.00175648904406,0.115772657096,"(1.2184696791468346e-07, 0.0, 0.0, 0.0, 1.2184696791468346e-07, 0.0, 0.0, 0.0, 1.2184696791468346e-07)",0.0,0.0,0.0,"(-1.0, 0.0, 0.0, 0.0, 8.999999999999999e-08, 0.0, 0.0, 0.0, 8.999999999999999e-08)"
1970/01/01/01:00:10.732000,12,10,732000000,base_link,0.000503922599786,3.10319960438e-05,-0.684078881125,-0.729407900992,"(1.0, 0.0, 0.0, 0.0, 1.0, 0.0, 0.0, 0.0, 1.0)",0.000361480750144,-0.000662478618324,0.0898294150829,"(1.2184696791468346e-07, 0.0, 0.0, 0.0, 1.2184696791468346e-07, 0.0, 0.0, 0.0, 1.2184696791468346e-07)",0.0,0.0,0.0,"(-1.0, 0.0, 0.0, 0.0, 8.999999999999999e-08, 0.0, 0.0, 0.0, 8.999999999999999e-08)"
1970/01/01/01:00:10.752000,13,10,752000000,base_link,0.00055069343914,1.42570770084e-06,-0.68455958964,-0.728956695271,"(1.0, 0.0, 0.0, 0.0, 1.0, 0.0, 0.0, 0.0, 1.0)",-0.00406483607367,0.00549764651805,0.0618242882192,"(1.2184696791468346e-07, 0.0, 0.0, 0.0, 1.2184696791468346e-07, 0.0, 0.0, 0.0, 1.2184696791468346e-07)",0.0,0.0,0.0,"(-1.0, 0.0, 0.0, 0.0, 8.999999999999999e-08, 0.0, 0.0, 0.0, 8.999999999999999e-08)"
1970/01/01/01:00:10.772000,14,10,772000000,base_link,0.000581431292163,4.91589069549e-05,-0.684915613289,-0.728622250809,"(1.0, 0.0, 0.0, 0.0, 1.0, 0.0, 0.0, 0.0, 1.0)",-0.00214849575423,-0.00395860522985,0.0481358058751,"(1.2184696791468346e-07, 0.0, 0.0, 0.0, 1.2184696791468346e-07, 0.0, 0.0, 0.0, 1.2184696791468346e-07)",0.0,0.0,0.0,"(-1.0, 0.0, 0.0, 0.0, 8.999999999999999e-08, 0.0, 0.0, 0.0, 8.999999999999999e-08)"
1970/01/01/01:00:10.792000,15,10,791000000,base_link,0.000698613381037,-8.41021634675e-05,-0.685209596777,-0.728345631822,"(1.0, 0.0, 0.0, 0.0, 1.0, 0.0, 0.0, 0.0, 1.0)",-2.69515294349e-06,0.0211001224816,0.043683744967,"(1.2184696791468346e-07, 0.0, 0.0, 0.0, 1.2184696791468346e-07, 0.0, 0.0, 0.0, 1.2184696791468346e-07)",0.0,0.0,0.0,"(-1.0, 0.0, 0.0, 0.0, 8.999999999999999e-08, 0.0, 0.0, 0.0, 8.999999999999999e-08)"
1970/01/01/01:00:10.812000,16,10,812000000,base_link,0.000764912616912,-9.28241533059e-05,-0.685365923389,-0.728198493223,"(1.0, 0.0, 0.0, 0.0, 1.0, 0.0, 0.0, 0.0, 1.0)",-0.00605103233829,0.000794562569354,0.0191924609244,"(1.2184696791468346e-07, 0.0, 0.0, 0.0, 1.2184696791468346e-07, 0.0, 0.0, 0.0, 1.2184696791468346e-07)",0.0,0.0,0.0,"(-1.0, 0.0, 0.0, 0.0, 8.999999999999999e-08, 0.0, 0.0, 0.0, 8.999999999999999e-08)"
1970/01/01/01:00:10.832000,17,10,831000000,base_link,0.000771116023859,-7.39007945509e-05,-0.685460512771,-0.728109467225,"(1.0, 0.0, 0.0, 0.0, 1.0, 0.0, 0.0, 0.0, 1.0)",-0.00279636122286,-0.00272394437343,0.0120845427737,"(1.2184696791468346e-07, 0.0, 0.0, 0.0, 1.2184696791468346e-07, 0.0, 0.0, 0.0, 1.2184696791468346e-07)",0.0,0.0,0.0,"(-1.0, 0.0, 0.0, 0.0, 8.999999999999999e-08, 0.0, 0.0, 0.0, 8.999999999999999e-08)"
1970/01/01/01:00:10.852000,18,10,852000000,base_link,0.000725734425305,-8.33712202226e-05,-0.685599805471,-0.727978351014,"(1.0, 0.0, 0.0, 0.0, 1.0, 0.0, 0.0, 0.0, 1.0)",0.00499896332622,-0.00708238501102,0.0119342794642,"(1.2184696791468346e-07, 0.0, 0.0, 0.0, 1.2184696791468346e-07, 0.0, 0.0, 0.0, 1.2184696791468346e-07)",0.0,0.0,0.0,"(-1.0, 0.0, 0.0, 0.0, 8.999999999999999e-08, 0.0, 0.0, 0.0, 8.999999999999999e-08)"
1970/01/01/01:00:10.872000,19,10,872000000,base_link,0.000760788481931,-4.15232891798e-05,-0.685688743224,-0.727894555176,"(1.0, 0.0, 0.0, 0.0, 1.0, 0.0, 0.0, 0.0, 1.0)",-0.00537807773799,-0.000993568217382,0.0172075182199,"(1.2184696791468346e-07, 0.0, 0.0, 0.0, 1.2184696791468346e-07, 0.0, 0.0, 0.0, 1.2184696791468346e-07)",0.0,0.0,0.0,"(-1.0, 0.0, 0.0, 0.0, 8.999999999999999e-08, 0.0, 0.0, 0.0, 8.999999999999999e-08)"
1970/01/01/01:00:10.892000,20,10,892000000,base_link,0.000777100835189,-9.57516717571e-05,-0.685900550894,-0.727694885798,"(1.0, 0.0, 0.0, 0.0, 1.0, 0.0, 0.0, 0.0, 1.0)",0.00318346172571,0.00369501672685,0.0268557686359,"(1.2184696791468346e-07, 0.0, 0.0, 0.0, 1.2184696791468346e-07, 0.0, 0.0, 0.0, 1.2184696791468346e-07)",0.0,0.0,0.0,"(-1.0, 0.0, 0.0, 0.0, 8.999999999999999e-08, 0.0, 0.0, 0.0, 8.999999999999999e-08)"
1970/01/01/01:00:10.914000,21,10,913000000,base_link,0.000786401294639,-7.68870880995e-05,-0.686090797817,-0.727515597056,"(1.0, 0.0, 0.0, 0.0, 1.0, 0.0, 0.0, 0.0, 1.0)",-0.0017499900423,0.00100207177456,0.029231172055,"(1.2184696791468346e-07, 0.0, 0.0, 0.0, 1.2184696791468346e-07, 0.0, 0.0, 0.0, 1.2184696791468346e-07)",0.0,0.0,0.0,"(-1.0, 0.0, 0.0, 0.0, 8.999999999999999e-08, 0.0, 0.0, 0.0, 8.999999999999999e-08)"
1970/01/01/01:00:10.932000,22,10,932000000,base_link,0.000820121736898,-9.73551453159e-05,-0.686375630171,-0.727246780505,"(1.0, 0.0, 0.0, 0.0, 1.0, 0.0, 0.0, 0.0, 1.0)",-0.000768414116465,0.00565995369107,0.0450938269496,"(1.2184696791468346e-07, 0.0, 0.0, 0.0, 1.2184696791468346e-07, 0.0, 0.0, 0.0, 1.2184696791468346e-07)",0.0,0.0,0.0,"(-1.0, 0.0, 0.0, 0.0, 8.999999999999999e-08, 0.0, 0.0, 0.0, 8.999999999999999e-08)"
1970/01/01/01:00:10.952000,23,10,952000000,base_link,0.000822436726639,-7.99048271483e-05,-0.686799256048,-0.72684667257,"(1.0, 0.0, 0.0, 0.0, 1.0, 0.0, 0.0, 0.0, 1.0)",-0.00160307087936,-0.00182763917837,0.0608611218631,"(1.2184696791468346e-07, 0.0, 0.0, 0.0, 1.2184696791468346e-07, 0.0, 0.0, 0.0, 1.2184696791468346e-07)",0.0,0.0,0.0,"(-1.0, 0.0, 0.0, 0.0, 8.999999999999999e-08, 0.0, 0.0, 0.0, 8.999999999999999e-08)"
1970/01/01/01:00:10.972000,24,10,972000000,base_link,0.000877305626068,-5.03399242117e-05,-0.687315597089,-0.726358485623,"(1.0, 0.0, 0.0, 0.0, 1.0, 0.0, 0.0, 0.0, 1.0)",-0.0113692656159,-0.000497899774928,0.0770320519805,"(1.2184696791468346e-07, 0.0, 0.0, 0.0, 1.2184696791468346e-07, 0.0, 0.0, 0.0, 1.2184696791468346e-07)",0.0,0.0,0.0,"(-1.0, 0.0, 0.0, 0.0, 8.999999999999999e-08, 0.0, 0.0, 0.0, 8.999999999999999e-08)"
1970/01/01/01:00:10.992000,25,10,992000000,base_link,0.000877965734619,8.50300321006e-06,-0.687848219984,-0.725854016823,"(1.0, 0.0, 0.0, 0.0, 1.0, 0.0, 0.0, 0.0, 1.0)",-0.0035873092711,-0.00608105259016,0.0737177729607,"(1.2184696791468346e-07, 0.0, 0.0, 0.0, 1.2184696791468346e-07, 0.0, 0.0, 0.0, 1.2184696791468346e-07)",0.0,0.0,0.0,"(-1.0, 0.0, 0.0, 0.0, 8.999999999999999e-08, 0.0, 0.0, 0.0, 8.999999999999999e-08)"
1970/01/01/01:00:11.014000,26,11,14000000,base_link,0.000942298124423,2.16679664691e-05,-0.688495153036,-0.725240464075,"(1.0, 0.0, 0.0, 0.0, 1.0, 0.0, 0.0, 0.0, 1.0)",-0.0022185833659,0.00185347511433,0.0897947475314,"(1.2184696791468346e-07, 0.0, 0.0, 0.0, 1.2184696791468346e-07, 0.0, 0.0, 0.0, 1.2184696791468346e-07)",0.0,0.0,0.0,"(-1.0, 0.0, 0.0, 0.0, 8.999999999999999e-08, 0.0, 0.0, 0.0, 8.999999999999999e-08)"
1970/01/01/01:00:11.032000,27,11,32000000,base_link,0.000894684121725,1.25975036884e-05,-0.689123657377,-0.724643232695,"(1.0, 0.0, 0.0, 0.0, 1.0, 0.0, 0.0, 0.0, 1.0)",0.00327815371566,-0.00749851670116,0.0863654613495,"(1.2184696791468346e-07, 0.0, 0.0, 0.0, 1.2184696791468346e-07, 0.0, 0.0, 0.0, 1.2184696791468346e-07)",0.0,0.0,0.0,"(-1.0, 0.0, 0.0, 0.0, 8.999999999999999e-08, 0.0, 0.0, 0.0, 8.999999999999999e-08)"
1970/01/01/01:00:11.051000,28,11,52000000,base_link,0.000872717340686,-1.53303399193e-05,-0.689765221974,-0.724032603886,"(1.0, 0.0, 0.0, 0.0, 1.0, 0.0, 0.0, 0.0, 1.0)",0.000628658104688,0.000130358152092,0.0865954309702,"(1.2184696791468346e-07, 0.0, 0.0, 0.0, 1.2184696791468346e-07, 0.0, 0.0, 0.0, 1.2184696791468346e-07)",0.0,0.0,0.0,"(-1.0, 0.0, 0.0, 0.0, 8.999999999999999e-08, 0.0, 0.0, 0.0, 8.999999999999999e-08)"
1970/01/01/01:00:11.072000,29,11,71000000,base_link,0.000818752252435,-0.000125879794884,-0.690329149441,-0.723495144639,"(1.0, 0.0, 0.0, 0.0, 1.0, 0.0, 0.0, 0.0, 1.0)",0.00932244863361,0.00144637888297,0.0647361502051,"(1.2184696791468346e-07, 0.0, 0.0, 0.0, 1.2184696791468346e-07, 0.0, 0.0, 0.0, 1.2184696791468346e-07)",0.0,0.0,0.0,"(-1.0, 0.0, 0.0, 0.0, 8.999999999999999e-08, 0.0, 0.0, 0.0, 8.999999999999999e-08)"
1970/01/01/01:00:11.092000,30,11,92000000,base_link,0.000750360388488,-5.69273449251e-05,-0.690779381833,-0.723065311322,"(1.0, 0.0, 0.0, 0.0, 1.0, 0.0, 0.0, 0.0, 1.0)",0.00323599390686,-0.011231020093,0.0606269203126,"(1.2184696791468346e-07, 0.0, 0.0, 0.0, 1.2184696791468346e-07, 0.0, 0.0, 0.0, 1.2184696791468346e-07)",0.0,0.0,0.0,"(-1.0, 0.0, 0.0, 0.0, 8.999999999999999e-08, 0.0, 0.0, 0.0, 8.999999999999999e-08)"
1970/01/01/01:00:11.114000,31,11,112000000,base_link,0.000715794642614,-0.000113640848101,-0.691227182879,-0.722637150708,"(1.0, 0.0, 0.0, 0.0, 1.0, 0.0, 0.0, 0.0, 1.0)",0.00886832457036,0.0037273648195,0.060444034636,"(1.2184696791468346e-07, 0.0, 0.0, 0.0, 1.2184696791468346e-07, 0.0, 0.0, 0.0, 1.2184696791468346e-07)",0.0,0.0,0.0,"(-1.0, 0.0, 0.0, 0.0, 8.999999999999999e-08, 0.0, 0.0, 0.0, 8.999999999999999e-08)"
1970/01/01/01:00:11.132000,32,11,132000000,base_link,0.000693903614773,-7.48711187244e-05,-0.691686653333,-0.722197489272,"(1.0, 0.0, 0.0, 0.0, 1.0, 0.0, 0.0, 0.0, 1.0)",-0.0031641877722,-0.00689022801816,0.0630500614643,"(1.2184696791468346e-07, 0.0, 0.0, 0.0, 1.2184696791468346e-07, 0.0, 0.0, 0.0, 1.2184696791468346e-07)",0.0,0.0,0.0,"(-1.0, 0.0, 0.0, 0.0, 8.999999999999999e-08, 0.0, 0.0, 0.0, 8.999999999999999e-08)"
1970/01/01/01:00:11.151000,33,11,151000000,base_link,0.000683257563677,-6.44949474e-05,-0.692033602239,-0.721865038882,"(1.0, 0.0, 0.0, 0.0, 1.0, 0.0, 0.0, 0.0, 1.0)",-0.000236342661083,-0.00180827174336,0.0470923110843,"(1.2184696791468346e-07, 0.0, 0.0, 0.0, 1.2184696791468346e-07, 0.0, 0.0, 0.0, 1.2184696791468346e-07)",0.0,0.0,0.0,"(-1.0, 0.0, 0.0, 0.0, 8.999999999999999e-08, 0.0, 0.0, 0.0, 8.999999999999999e-08)"
1970/01/01/01:00:11.172000,34,11,172000000,base_link,0.000683068499665,-2.95566711301e-05,-0.692321162284,-0.721589279955,"(1.0, 0.0, 0.0, 0.0, 1.0, 0.0, 0.0, 0.0, 1.0)",-0.00737853627652,-0.00429827161133,0.0316127240658,"(1.2184696791468346e-07, 0.0, 0.0, 0.0, 1.2184696791468346e-07, 0.0, 0.0, 0.0, 1.2184696791468346e-07)",0.0,0.0,0.0,"(-1.0, 0.0, 0.0, 0.0, 8.999999999999999e-08, 0.0, 0.0, 0.0, 8.999999999999999e-08)"
1970/01/01/01:00:11.192000,35,11,192000000,base_link,0.000672990998854,-1.95670036848e-07,-0.692545266297,-0.721374195367,"(1.0, 0.0, 0.0, 0.0, 1.0, 0.0, 0.0, 0.0, 1.0)",-0.00364736188203,-0.00444475701079,0.027405899018,"(1.2184696791468346e-07, 0.0, 0.0, 0.0, 1.2184696791468346e-07, 0.0, 0.0, 0.0, 1.2184696791468346e-07)",0.0,0.0,0.0,"(-1.0, 0.0, 0.0, 0.0, 8.999999999999999e-08, 0.0, 0.0, 0.0, 8.999999999999999e-08)"
1970/01/01/01:00:11.214000,36,11,214000000,base_link,0.000615496914642,-2.85389111725e-05,-0.692778236953,-0.721150412724,"(1.0, 0.0, 0.0, 0.0, 1.0, 0.0, 0.0, 0.0, 1.0)",0.00562895741314,-0.00122421979904,0.0249199084938,"(1.2184696791468346e-07, 0.0, 0.0, 0.0, 1.2184696791468346e-07, 0.0, 0.0, 0.0, 1.2184696791468346e-07)",0.0,0.0,0.0,"(-1.0, 0.0, 0.0, 0.0, 8.999999999999999e-08, 0.0, 0.0, 0.0, 8.999999999999999e-08)"
1970/01/01/01:00:11.232000,37,11,232000000,base_link,0.00059600126013,-0.000133926756022,-0.693041762758,-0.720897255044,"(1.0, 0.0, 0.0, 0.0, 1.0, 0.0, 0.0, 0.0, 1.0)",0.00962095148861,0.00750598404557,0.0372263677418,"(1.2184696791468346e-07, 0.0, 0.0, 0.0, 1.2184696791468346e-07, 0.0, 0.0, 0.0, 1.2184696791468346e-07)",0.0,0.0,0.0,"(-1.0, 0.0, 0.0, 0.0, 8.999999999999999e-08, 0.0, 0.0, 0.0, 8.999999999999999e-08)"
1970/01/01/01:00:11.252000,38,11,252000000,base_link,0.000535780637018,-0.000156337457799,-0.693284332359,-0.72066395775,"(1.0, 0.0, 0.0, 0.0, 1.0, 0.0, 0.0, 0.0, 1.0)",0.00562900630757,-0.00753719592467,0.0258809160441,"(1.2184696791468346e-07, 0.0, 0.0, 0.0, 1.2184696791468346e-07, 0.0, 0.0, 0.0, 1.2184696791468346e-07)",0.0,0.0,0.0,"(-1.0, 0.0, 0.0, 0.0, 8.999999999999999e-08, 0.0, 0.0, 0.0, 8.999999999999999e-08)"
1970/01/01/01:00:11.272000,39,11,272000000,base_link,0.000584257271283,-0.000168538702909,-0.693483816027,-0.72047197622,"(1.0, 0.0, 0.0, 0.0, 1.0, 0.0, 0.0, 0.0, 1.0)",-0.00732606416568,0.00386993563734,0.0240485332906,"(1.2184696791468346e-07, 0.0, 0.0, 0.0, 1.2184696791468346e-07, 0.0, 0.0, 0.0, 1.2184696791468346e-07)",0.0,0.0,0.0,"(-1.0, 0.0, 0.0, 0.0, 8.999999999999999e-08, 0.0, 0.0, 0.0, 8.999999999999999e-08)"
1970/01/01/01:00:11.292000,40,11,292000000,base_link,0.000501571009377,-0.000208919242442,-0.693805702046,-0.720162059907,"(1.0, 0.0, 0.0, 0.0, 1.0, 0.0, 0.0, 0.0, 1.0)",0.0146966325119,-0.00183388602454,0.0424612239003,"(1.2184696791468346e-07, 0.0, 0.0, 0.0, 1.2184696791468346e-07, 0.0, 0.0, 0.0, 1.2184696791468346e-07)",0.0,0.0,0.0,"(-1.0, 0.0, 0.0, 0.0, 8.999999999999999e-08, 0.0, 0.0, 0.0, 8.999999999999999e-08)"
1970/01/01/01:00:11.315000,41,11,314000000,base_link,0.000473471563476,-0.000200516512923,-0.694091391824,-0.719886738253,"(1.0, 0.0, 0.0, 0.0, 1.0, 0.0, 0.0, 0.0, 1.0)",0.0025080118794,-0.00192067935131,0.0327086001635,"(1.2184696791468346e-07, 0.0, 0.0, 0.0, 1.2184696791468346e-07, 0.0, 0.0, 0.0, 1.2184696791468346e-07)",0.0,0.0,0.0,"(-1.0, 0.0, 0.0, 0.0, 8.999999999999999e-08, 0.0, 0.0, 0.0, 8.999999999999999e-08)"
1970/01/01/01:00:11.332000,42,11,330000000,base_link,0.000417308397714,-0.000216261015599,-0.694431835627,-0.719558348448,"(1.0, 0.0, 0.0, 0.0, 1.0, 0.0, 0.0, 0.0, 1.0)",0.00354691874236,-0.00428831391037,0.0469852201641,"(1.2184696791468346e-07, 0.0, 0.0, 0.0, 1.2184696791468346e-07, 0.0, 0.0, 0.0, 1.2184696791468346e-07)",0.0,0.0,0.0,"(-1.0, 0.0, 0.0, 0.0, 8.999999999999999e-08, 0.0, 0.0, 0.0, 8.999999999999999e-08)"
1970/01/01/01:00:11.352000,43,11,352000000,base_link,0.000408169718983,-0.000261982706088,-0.694757305446,-0.719244089692,"(1.0, 0.0, 0.0, 0.0, 1.0, 0.0, 0.0, 0.0, 1.0)",0.00501205027103,0.00254732370377,0.037009395659,"(1.2184696791468346e-07, 0.0, 0.0, 0.0, 1.2184696791468346e-07, 0.0, 0.0, 0.0, 1.2184696791468346e-07)",0.0,0.0,0.0,"(-1.0, 0.0, 0.0, 0.0, 8.999999999999999e-08, 0.0, 0.0, 0.0, 8.999999999999999e-08)"
1970/01/01/01:00:11.372000,44,11,371000000,base_link,0.000324941548261,-0.000342419677072,-0.695111691953,-0.718901588596,"(1.0, 0.0, 0.0, 0.0, 1.0, 0.0, 0.0, 0.0, 1.0)",0.00654889177531,-0.00116870133206,0.0379790998995,"(1.2184696791468346e-07, 0.0, 0.0, 0.0, 1.2184696791468346e-07, 0.0, 0.0, 0.0, 1.2184696791468346e-07)",0.0,0.0,0.0,"(-1.0, 0.0, 0.0, 0.0, 8.999999999999999e-08, 0.0, 0.0, 0.0, 8.999999999999999e-08)"
1970/01/01/01:00:11.392000,45,11,392000000,base_link,0.000285405678237,-0.000374632820281,-0.695410017883,-0.718613040735,"(1.0, 0.0, 0.0, 0.0, 1.0, 0.0, 0.0, 0.0, 1.0)",0.00575705897063,0.000705018115696,0.0387697331607,"(1.2184696791468346e-07, 0.0, 0.0, 0.0, 1.2184696791468346e-07, 0.0, 0.0, 0.0, 1.2184696791468346e-07)",0.0,0.0,0.0,"(-1.0, 0.0, 0.0, 0.0, 8.999999999999999e-08, 0.0, 0.0, 0.0, 8.999999999999999e-08)"
1970/01/01/01:00:11.411000,46,11,411000000,base_link,0.000271570681955,-0.000314630489238,-0.695746872619,-0.718286975592,"(1.0, 0.0, 0.0, 0.0, 1.0, 0.0, 0.0, 0.0, 1.0)",-0.00426823319867,-0.00472248997539,0.0436463207006,"(1.2184696791468346e-07, 0.0, 0.0, 0.0, 1.2184696791468346e-07, 0.0, 0.0, 0.0, 1.2184696791468346e-07)",0.0,0.0,0.0,"(-1.0, 0.0, 0.0, 0.0, 8.999999999999999e-08, 0.0, 0.0, 0.0, 8.999999999999999e-08)"
1970/01/01/01:00:11.432000,47,11,431000000,base_link,0.000287406422628,-0.000313898549173,-0.695990209424,-0.718051140926,"(1.0, 0.0, 0.0, 0.0, 1.0, 0.0, 0.0, 0.0, 1.0)",0.00202256138436,0.0024419981055,0.030325839296,"(1.2184696791468346e-07, 0.0, 0.0, 0.0, 1.2184696791468346e-07, 0.0, 0.0, 0.0, 1.2184696791468346e-07)",0.0,0.0,0.0,"(-1.0, 0.0, 0.0, 0.0, 8.999999999999999e-08, 0.0, 0.0, 0.0, 8.999999999999999e-08)"
1970/01/01/01:00:11.452000,48,11,451000000,base_link,0.000178123681883,-0.000230615137886,-0.696257279515,-0.717792331617,"(1.0, 0.0, 0.0, 0.0, 1.0, 0.0, 0.0, 0.0, 1.0)",0.00171580142342,-0.0171289592981,0.031123297289,"(1.2184696791468346e-07, 0.0, 0.0, 0.0, 1.2184696791468346e-07, 0.0, 0.0, 0.0, 1.2184696791468346e-07)",0.0,0.0,0.0,"(-1.0, 0.0, 0.0, 0.0, 8.999999999999999e-08, 0.0, 0.0, 0.0, 8.999999999999999e-08)"
1970/01/01/01:00:11.473000,49,11,472000000,base_link,0.000218411650895,-0.000247576871336,-0.696511322937,-0.71754570604,"(1.0, 0.0, 0.0, 0.0, 1.0, 0.0, 0.0, 0.0, 1.0)",-0.00401583127677,0.00639351224527,0.0363718345761,"(1.2184696791468346e-07, 0.0, 0.0, 0.0, 1.2184696791468346e-07, 0.0, 0.0, 0.0, 1.2184696791468346e-07)",0.0,0.0,0.0,"(-1.0, 0.0, 0.0, 0.0, 8.999999999999999e-08, 0.0, 0.0, 0.0, 8.999999999999999e-08)"
1970/01/01/01:00:11.492000,50,11,490000000,base_link,0.000178279275886,-0.000355438408722,-0.696675810233,-0.717386107779,"(1.0, 0.0, 0.0, 0.0, 1.0, 0.0, 0.0, 0.0, 1.0)",0.0100375143811,0.00561897177249,0.0157645493746,"(1.2184696791468346e-07, 0.0, 0.0, 0.0, 1.2184696791468346e-07, 0.0, 0.0, 0.0, 1.2184696791468346e-07)",0.0,0.0,0.0,"(-1.0, 0.0, 0.0, 0.0, 8.999999999999999e-08, 0.0, 0.0, 0.0, 8.999999999999999e-08)"
1970/01/01/01:00:11.515000,51,11,514000000,base_link,0.000145415003226,-0.000366714810389,-0.696901206969,-0.717167117364,"(1.0, 0.0, 0.0, 0.0, 1.0, 0.0, 0.0, 0.0, 1.0)",0.00509225344285,-0.00604791240767,0.0305372104049,"(1.2184696791468346e-07, 0.0, 0.0, 0.0, 1.2184696791468346e-07, 0.0, 0.0, 0.0, 1.2184696791468346e-07)",0.0,0.0,0.0,"(-1.0, 0.0, 0.0, 0.0, 8.999999999999999e-08, 0.0, 0.0, 0.0, 8.999999999999999e-08)"
1970/01/01/01:00:11.532000,52,11,532000000,base_link,0.000103829944629,-0.000342404053361,-0.697098503611,-0.716975384106,"(1.0, 0.0, 0.0, 0.0, 1.0, 0.0, 0.0, 0.0, 1.0)",-0.0031542670913,-0.003010610817,0.0257763341069,"(1.2184696791468346e-07, 0.0, 0.0, 0.0, 1.2184696791468346e-07, 0.0, 0.0, 0.0, 1.2184696791468346e-07)",0.0,0.0,0.0,"(-1.0, 0.0, 0.0, 0.0, 8.999999999999999e-08, 0.0, 0.0, 0.0, 8.999999999999999e-08)"
1970/01/01/01:00:11.559000,53,11,558000000,base_link,4.38114123627e-05,-0.000361357561106,-0.697315227316,-0.716764476666,"(1.0, 0.0, 0.0, 0.0, 1.0, 0.0, 0.0, 0.0, 1.0)",0.0071282829158,-0.00268030678853,0.0296699255705,"(1.2184696791468346e-07, 0.0, 0.0, 0.0, 1.2184696791468346e-07, 0.0, 0.0, 0.0, 1.2184696791468346e-07)",0.0,0.0,0.0,"(-1.0, 0.0, 0.0, 0.0, 8.999999999999999e-08, 0.0, 0.0, 0.0, 8.999999999999999e-08)"
1970/01/01/01:00:11.573000,54,11,572000000,base_link,-8.38664662714e-06,-0.000395155104521,-0.697515492018,-0.716569606761,"(1.0, 0.0, 0.0, 0.0, 1.0, 0.0, 0.0, 0.0, 1.0)",0.00742140132934,0.0019770229701,0.0256914962083,"(1.2184696791468346e-07, 0.0, 0.0, 0.0, 1.2184696791468346e-07, 0.0, 0.0, 0.0, 1.2184696791468346e-07)",0.0,0.0,0.0,"(-1.0, 0.0, 0.0, 0.0, 8.999999999999999e-08, 0.0, 0.0, 0.0, 8.999999999999999e-08)"
1970/01/01/01:00:11.594000,55,11,594000000,base_link,2.77006972014e-05,-0.000323080032011,-0.697758194645,-0.716333310455,"(1.0, 0.0, 0.0, 0.0, 1.0, 0.0, 0.0, 0.0, 1.0)",-0.00670775491744,-0.00281667546369,0.0358379147947,"(1.2184696791468346e-07, 0.0, 0.0, 0.0, 1.2184696791468346e-07, 0.0, 0.0, 0.0, 1.2184696791468346e-07)",0.0,0.0,0.0,"(-1.0, 0.0, 0.0, 0.0, 8.999999999999999e-08, 0.0, 0.0, 0.0, 8.999999999999999e-08)"
1970/01/01/01:00:11.614000,56,11,614000000,base_link,-4.63625726274e-05,-0.000343753349319,-0.698036736582,-0.716061933482,"(1.0, 0.0, 0.0, 0.0, 1.0, 0.0, 0.0, 0.0, 1.0)",0.0084163248539,-0.00332516385242,0.0363329276443,"(1.2184696791468346e-07, 0.0, 0.0, 0.0, 1.2184696791468346e-07, 0.0, 0.0, 0.0, 1.2184696791468346e-07)",0.0,0.0,0.0,"(-1.0, 0.0, 0.0, 0.0, 8.999999999999999e-08, 0.0, 0.0, 0.0, 8.999999999999999e-08)"
1970/01/01/01:00:11.632000,57,11,632000000,base_link,-0.000128791199574,-0.00035194131101,-0.698198967704,-0.715903748457,"(1.0, 0.0, 0.0, 0.0, 1.0, 0.0, 0.0, 0.0, 1.0)",0.007344677113,-0.00793080590665,0.0283453129232,"(1.2184696791468346e-07, 0.0, 0.0, 0.0, 1.2184696791468346e-07, 0.0, 0.0, 0.0, 1.2184696791468346e-07)",0.0,0.0,0.0,"(-1.0, 0.0, 0.0, 0.0, 8.999999999999999e-08, 0.0, 0.0, 0.0, 8.999999999999999e-08)"
1970/01/01/01:00:11.653000,58,11,652000000,base_link,-9.08243594303e-05,-0.000488714687407,-0.698392230102,-0.715715206506,"(1.0, 0.0, 0.0, 0.0, 1.0, 0.0, 0.0, 0.0, 1.0)",0.00941179506481,0.0163250379264,0.0270943418145,"(1.2184696791468346e-07, 0.0, 0.0, 0.0, 1.2184696791468346e-07, 0.0, 0.0, 0.0, 1.2184696791468346e-07)",0.0,0.0,0.0,"(-1.0, 0.0, 0.0, 0.0, 8.999999999999999e-08, 0.0, 0.0, 0.0, 8.999999999999999e-08)"
1970/01/01/01:00:11.672000,59,11,672000000,base_link,-5.35303459782e-05,-0.000416664752775,-0.698568114828,-0.715543536465,"(1.0, 0.0, 0.0, 0.0, 1.0, 0.0, 0.0, 0.0, 1.0)",-0.00735008670017,-0.00406981492415,0.0266281478107,"(1.2184696791468346e-07, 0.0, 0.0, 0.0, 1.2184696791468346e-07, 0.0, 0.0, 0.0, 1.2184696791468346e-07)",0.0,0.0,0.0,"(-1.0, 0.0, 0.0, 0.0, 8.999999999999999e-08, 0.0, 0.0, 0.0, 8.999999999999999e-08)"
1970/01/01/01:00:11.692000,60,11,692000000,base_link,-3.27981609652e-05,-0.000356208442757,-0.69874991921,-0.715366031062,"(1.0, 0.0, 0.0, 0.0, 1.0, 0.0, 0.0, 0.0, 1.0)",-0.00712735392153,-0.000501189031638,0.0279554091394,"(1.2184696791468346e-07, 0.0, 0.0, 0.0, 1.2184696791468346e-07, 0.0, 0.0, 0.0, 1.2184696791468346e-07)",0.0,0.0,0.0,"(-1.0, 0.0, 0.0, 0.0, 8.999999999999999e-08, 0.0, 0.0, 0.0, 8.999999999999999e-08)"
1970/01/01/01:00:11.714000,61,11,714000000,base_link,-7.86938666956e-05,-0.000295656417411,-0.698911913257,-0.715207830232,"(1.0, 0.0, 0.0, 0.0, 1.0, 0.0, 0.0, 0.0, 1.0)",-0.00121885573026,-0.00694451900199,0.022033682093,"(1.2184696791468346e-07, 0.0, 0.0, 0.0, 1.2184696791468346e-07, 0.0, 0.0, 0.0, 1.2184696791468346e-07)",0.0,0.0,0.0,"(-1.0, 0.0, 0.0, 0.0, 8.999999999999999e-08, 0.0, 0.0, 0.0, 8.999999999999999e-08)"
1970/01/01/01:00:11.732000,62,11,732000000,base_link,-7.26801617258e-05,-0.000261666548131,-0.699012581004,-0.715109438414,"(1.0, 0.0, 0.0, 0.0, 1.0, 0.0, 0.0, 0.0, 1.0)",-0.00406894972548,-0.00236115884036,0.0163760706782,"(1.2184696791468346e-07, 0.0, 0.0, 0.0, 1.2184696791468346e-07, 0.0, 0.0, 0.0, 1.2184696791468346e-07)",0.0,0.0,0.0,"(-1.0, 0.0, 0.0, 0.0, 8.999999999999999e-08, 0.0, 0.0, 0.0, 8.999999999999999e-08)"
1970/01/01/01:00:11.752000,63,11,752000000,base_link,-3.67418033025e-05,-0.000249539183482,-0.699128109467,-0.714996438762,"(1.0, 0.0, 0.0, 0.0, 1.0, 0.0, 0.0, 0.0, 1.0)",-0.00172659254167,-0.000711265893187,0.0215854775161,"(1.2184696791468346e-07, 0.0, 0.0, 0.0, 1.2184696791468346e-07, 0.0, 0.0, 0.0, 1.2184696791468346e-07)",0.0,0.0,0.0,"(-1.0, 0.0, 0.0, 0.0, 8.999999999999999e-08, 0.0, 0.0, 0.0, 8.999999999999999e-08)"
1970/01/01/01:00:11.772000,64,11,772000000,base_link,-9.25828224681e-05,-0.00024664508102,-0.699205576034,-0.714920658069,"(1.0, 0.0, 0.0, 0.0, 1.0, 0.0, 0.0, 0.0, 1.0)",0.00414561852813,-0.00380499660969,0.0119397956878,"(1.2184696791468346e-07, 0.0, 0.0, 0.0, 1.2184696791468346e-07, 0.0, 0.0, 0.0, 1.2184696791468346e-07)",0.0,0.0,0.0,"(-1.0, 0.0, 0.0, 0.0, 8.999999999999999e-08, 0.0, 0.0, 0.0, 8.999999999999999e-08)"
1970/01/01/01:00:11.792000,65,11,792000000,base_link,-5.37298849641e-05,-0.000293901560934,-0.699291031403,-0.714837057161,"(1.0, 0.0, 0.0, 0.0, 1.0, 0.0, 0.0, 0.0, 1.0)",0.00197667186148,0.00509601645172,0.0181663800031,"(1.2184696791468346e-07, 0.0, 0.0, 0.0, 1.2184696791468346e-07, 0.0, 0.0, 0.0, 1.2184696791468346e-07)",0.0,0.0,0.0,"(-1.0, 0.0, 0.0, 0.0, 8.999999999999999e-08, 0.0, 0.0, 0.0, 8.999999999999999e-08)"
1970/01/01/01:00:11.814000,66,11,814000000,base_link,-1.80967104715e-05,-0.000318742631507,-0.699418889136,-0.71471198112,"(1.0, 0.0, 0.0, 0.0, 1.0, 0.0, 0.0, 0.0, 1.0)",-0.00117681745905,0.00403298484161,0.0194135252386,"(1.2184696791468346e-07, 0.0, 0.0, 0.0, 1.2184696791468346e-07, 0.0, 0.0, 0.0, 1.2184696791468346e-07)",0.0,0.0,0.0,"(-1.0, 0.0, 0.0, 0.0, 8.999999999999999e-08, 0.0, 0.0, 0.0, 8.999999999999999e-08)"
1970/01/01/01:00:11.832000,67,11,832000000,base_link,-8.32171413873e-05,-0.000344770893191,-0.699559276338,-0.714574544198,"(1.0, 0.0, 0.0, 0.0, 1.0, 0.0, 0.0, 0.0, 1.0)",0.00849504675716,-0.00121890497394,0.0165739990771,"(1.2184696791468346e-07, 0.0, 0.0, 0.0, 1.2184696791468346e-07, 0.0, 0.0, 0.0, 1.2184696791468346e-07)",0.0,0.0,0.0,"(-1.0, 0.0, 0.0, 0.0, 8.999999999999999e-08, 0.0, 0.0, 0.0, 8.999999999999999e-08)"
1970/01/01/01:00:11.852000,68,11,852000000,base_link,-9.07901562749e-05,-0.000332167503762,-0.699666227258,-0.714469784913,"(1.0, 0.0, 0.0, 0.0, 1.0, 0.0, 0.0, 0.0, 1.0)",-1.43683864735e-05,-0.00227414513938,0.0200196392834,"(1.2184696791468346e-07, 0.0, 0.0, 0.0, 1.2184696791468346e-07, 0.0, 0.0, 0.0, 1.2184696791468346e-07)",0.0,0.0,0.0,"(-1.0, 0.0, 0.0, 0.0, 8.999999999999999e-08, 0.0, 0.0, 0.0, 8.999999999999999e-08)"
1970/01/01/01:00:11.872000,69,11,872000000,base_link,-0.000104282138331,-0.000343573443191,-0.69978172477,-0.714356731919,"(1.0, 0.0, 0.0, 0.0, 1.0, 0.0, 0.0, 0.0, 1.0)",0.00281692808494,0.000426966289524,0.0171573441476,"(1.2184696791468346e-07, 0.0, 0.0, 0.0, 1.2184696791468346e-07, 0.0, 0.0, 0.0, 1.2184696791468346e-07)",0.0,0.0,0.0,"(-1.0, 0.0, 0.0, 0.0, 8.999999999999999e-08, 0.0, 0.0, 0.0, 8.999999999999999e-08)"
1970/01/01/01:00:11.892000,70,11,892000000,base_link,-1.67173581294e-06,-0.000352070385734,-0.699969487663,-0.714172762243,"(1.0, 0.0, 0.0, 0.0, 1.0, 0.0, 0.0, 0.0, 1.0)",-0.0053219976835,0.00667268503457,0.0272599831223,"(1.2184696791468346e-07, 0.0, 0.0, 0.0, 1.2184696791468346e-07, 0.0, 0.0, 0.0, 1.2184696791468346e-07)",0.0,0.0,0.0,"(-1.0, 0.0, 0.0, 0.0, 8.999999999999999e-08, 0.0, 0.0, 0.0, 8.999999999999999e-08)"
1970/01/01/01:00:11.911000,71,11,911000000,base_link,1.46577498919e-05,-0.000295874323615,-0.700071253863,-0.714072934798,"(1.0, 0.0, 0.0, 0.0, 1.0, 0.0, 0.0, 0.0, 1.0)",-0.00423496542498,-0.0033168126829,0.0212699472904,"(1.2184696791468346e-07, 0.0, 0.0, 0.0, 1.2184696791468346e-07, 0.0, 0.0, 0.0, 1.2184696791468346e-07)",0.0,0.0,0.0,"(-1.0, 0.0, 0.0, 0.0, 8.999999999999999e-08, 0.0, 0.0, 0.0, 8.999999999999999e-08)"
1970/01/01/01:00:11.932000,72,11,932000000,base_link,-3.38630685937e-05,-0.000308910891275,-0.700233529766,-0.713913777761,"(1.0, 0.0, 0.0, 0.0, 1.0, 0.0, 0.0, 0.0, 1.0)",0.0038380024489,-0.00117040029727,0.0231277756393,"(1.2184696791468346e-07, 0.0, 0.0, 0.0, 1.2184696791468346e-07, 0.0, 0.0, 0.0, 1.2184696791468346e-07)",0.0,0.0,0.0,"(-1.0, 0.0, 0.0, 0.0, 8.999999999999999e-08, 0.0, 0.0, 0.0, 8.999999999999999e-08)"
1970/01/01/01:00:11.952000,73,11,951000000,base_link,-9.21947391026e-05,-0.000303968432424,-0.700362807321,-0.713787029017,"(1.0, 0.0, 0.0, 0.0, 1.0, 0.0, 0.0, 0.0, 1.0)",0.00584401935339,-0.00544524472207,0.0169850904495,"(1.2184696791468346e-07, 0.0, 0.0, 0.0, 1.2184696791468346e-07, 0.0, 0.0, 0.0, 1.2184696791468346e-07)",0.0,0.0,0.0,"(-1.0, 0.0, 0.0, 0.0, 8.999999999999999e-08, 0.0, 0.0, 0.0, 8.999999999999999e-08)"
1970/01/01/01:00:11.972000,74,11,972000000,base_link,-0.000172160383865,-0.000309287264896,-0.700517743088,-0.71363504353,"(1.0, 0.0, 0.0, 0.0, 1.0, 0.0, 0.0, 0.0, 1.0)",0.00807586871088,-0.00585489440709,0.0236911606044,"(1.2184696791468346e-07, 0.0, 0.0, 0.0, 1.2184696791468346e-07, 0.0, 0.0, 0.0, 1.2184696791468346e-07)",0.0,0.0,0.0,"(-1.0, 0.0, 0.0, 0.0, 8.999999999999999e-08, 0.0, 0.0, 0.0, 8.999999999999999e-08)"
1970/01/01/01:00:11.992000,75,11,992000000,base_link,-0.00020098190324,-0.000318682194614,-0.700709394028,-0.713446764338,"(1.0, 0.0, 0.0, 0.0, 1.0, 0.0, 0.0, 0.0, 1.0)",-0.00102866312955,-0.00328919128515,0.0314282029867,"(1.2184696791468346e-07, 0.0, 0.0, 0.0, 1.2184696791468346e-07, 0.0, 0.0, 0.0, 1.2184696791468346e-07)",0.0,0.0,0.0,"(-1.0, 0.0, 0.0, 0.0, 8.999999999999999e-08, 0.0, 0.0, 0.0, 8.999999999999999e-08)"
1970/01/01/01:00:12.012000,76,12,12000000,base_link,-0.000140525207356,-0.000247314455498,-0.700844981098,-0.713313537491,"(1.0, 0.0, 0.0, 0.0, 1.0, 0.0, 0.0, 0.0, 1.0)",-0.0118226967752,-0.00244660535827,0.0185146071017,"(1.2184696791468346e-07, 0.0, 0.0, 0.0, 1.2184696791468346e-07, 0.0, 0.0, 0.0, 1.2184696791468346e-07)",0.0,0.0,0.0,"(-1.0, 0.0, 0.0, 0.0, 8.999999999999999e-08, 0.0, 0.0, 0.0, 8.999999999999999e-08)"
1970/01/01/01:00:12.031000,77,12,31000000,base_link,-8.62781797375e-05,-0.000265140843739,-0.701007930034,-0.713153454541,"(1.0, 0.0, 0.0, 0.0, 1.0, 0.0, 0.0, 0.0, 1.0)",-0.00230466993526,0.00523860938847,0.0198333840817,"(1.2184696791468346e-07, 0.0, 0.0, 0.0, 1.2184696791468346e-07, 0.0, 0.0, 0.0, 1.2184696791468346e-07)",0.0,0.0,0.0,"(-1.0, 0.0, 0.0, 0.0, 8.999999999999999e-08, 0.0, 0.0, 0.0, 8.999999999999999e-08)"
1970/01/01/01:00:12.052000,78,12,52000000,base_link,-4.63035402862e-05,-0.000219989241854,-0.701137445324,-0.713026130887,"(1.0, 0.0, 0.0, 0.0, 1.0, 0.0, 0.0, 0.0, 1.0)",-0.00873421225697,0.000874694727827,0.0161987356842,"(1.2184696791468346e-07, 0.0, 0.0, 0.0, 1.2184696791468346e-07, 0.0, 0.0, 0.0, 1.2184696791468346e-07)",0.0,0.0,0.0,"(-1.0, 0.0, 0.0, 0.0, 8.999999999999999e-08, 0.0, 0.0, 0.0, 8.999999999999999e-08)"
1970/01/01/01:00:12.072000,79,12,72000000,base_link,-3.52837548926e-05,-0.000241690433951,-0.701321812103,-0.712844882975,"(1.0, 0.0, 0.0, 0.0, 1.0, 0.0, 0.0, 0.0, 1.0)",0.00167584675364,0.00365309789777,0.0246717724949,"(1.2184696791468346e-07, 0.0, 0.0, 0.0, 1.2184696791468346e-07, 0.0, 0.0, 0.0, 1.2184696791468346e-07)",0.0,0.0,0.0,"(-1.0, 0.0, 0.0, 0.0, 8.999999999999999e-08, 0.0, 0.0, 0.0, 8.999999999999999e-08)"
1970/01/01/01:00:12.092000,80,12,92000000,base_link,-8.00035882449e-05,-0.000288349701459,-0.701387721213,-0.712779901096,"(1.0, 0.0, 0.0, 0.0, 1.0, 0.0, 0.0, 0.0, 1.0)",0.00956116057932,-0.00132236583158,0.0123999062926,"(1.2184696791468346e-07, 0.0, 0.0, 0.0, 1.2184696791468346e-07, 0.0, 0.0, 0.0, 1.2184696791468346e-07)",0.0,0.0,0.0,"(-1.0, 0.0, 0.0, 0.0, 8.999999999999999e-08, 0.0, 0.0, 0.0, 8.999999999999999e-08)"
1970/01/01/01:00:12.114000,81,12,114000000,base_link,9.41139333052e-06,-0.000256445987992,-0.701468119619,-0.712700767095,"(1.0, 0.0, 0.0, 0.0, 1.0, 0.0, 0.0, 0.0, 1.0)",-0.00753786368296,0.00558826234192,0.0122436443344,"(1.2184696791468346e-07, 0.0, 0.0, 0.0, 1.2184696791468346e-07, 0.0, 0.0, 0.0, 1.2184696791468346e-07)",0.0,0.0,0.0,"(-1.0, 0.0, 0.0, 0.0, 8.999999999999999e-08, 0.0, 0.0, 0.0, 8.999999999999999e-08)"
1970/01/01/01:00:12.132000,82,12,132000000,base_link,-1.47722748976e-05,-0.000222810806668,-0.701544674759,-0.712625560653,"(1.0, 0.0, 0.0, 0.0, 1.0, 0.0, 0.0, 0.0, 1.0)",0.00135376595426,-0.00576988281682,0.0121436435729,"(1.2184696791468346e-07, 0.0, 0.0, 0.0, 1.2184696791468346e-07, 0.0, 0.0, 0.0, 1.2184696791468346e-07)",0.0,0.0,0.0,"(-1.0, 0.0, 0.0, 0.0, 8.999999999999999e-08, 0.0, 0.0, 0.0, 8.999999999999999e-08)"
1970/01/01/01:00:12.152000,83,12,152000000,base_link,2.65256377142e-05,-0.000327486898671,-0.701553788357,-0.712616447056,"(1.0, 0.0, 0.0, 0.0, 1.0, 0.0, 0.0, 0.0, 1.0)",0.0013202552218,0.00964258424938,0.000602478918154,"(1.2184696791468346e-07, 0.0, 0.0, 0.0, 1.2184696791468346e-07, 0.0, 0.0, 0.0, 1.2184696791468346e-07)",0.0,0.0,0.0,"(-1.0, 0.0, 0.0, 0.0, 8.999999999999999e-08, 0.0, 0.0, 0.0, 8.999999999999999e-08)"
1970/01/01/01:00:12.172000,84,12,172000000,base_link,0.000126718183781,-0.000270409796609,-0.701578966818,-0.712591774357,"(1.0, 0.0, 0.0, 0.0, 1.0, 0.0, 0.0, 0.0, 1.0)",-0.00955095887184,-0.000994930975139,0.00686810584739,"(1.2184696791468346e-07, 0.0, 0.0, 0.0, 1.2184696791468346e-07, 0.0, 0.0, 0.0, 1.2184696791468346e-07)",0.0,0.0,0.0,"(-1.0, 0.0, 0.0, 0.0, 8.999999999999999e-08, 0.0, 0.0, 0.0, 8.999999999999999e-08)"
1970/01/01/01:00:12.192000,85,12,192000000,base_link,4.49186829246e-05,-0.000258475653035,-0.701637957589,-0.712533710817,"(1.0, 0.0, 0.0, 0.0, 1.0, 0.0, 0.0, 0.0, 1.0)",0.00498329289258,-0.00869195535779,0.00624598283321,"(1.2184696791468346e-07, 0.0, 0.0, 0.0, 1.2184696791468346e-07, 0.0, 0.0, 0.0, 1.2184696791468346e-07)",0.0,0.0,0.0,"(-1.0, 0.0, 0.0, 0.0, 8.999999999999999e-08, 0.0, 0.0, 0.0, 8.999999999999999e-08)"
1970/01/01/01:00:12.214000,86,12,214000000,base_link,5.50460633367e-05,-0.00020226734096,-0.701700860114,-0.712471735522,"(1.0, 0.0, 0.0, 0.0, 1.0, 0.0, 0.0, 0.0, 1.0)",-0.0047220857814,-0.00573110952973,0.00813450850546,"(1.2184696791468346e-07, 0.0, 0.0, 0.0, 1.2184696791468346e-07, 0.0, 0.0, 0.0, 1.2184696791468346e-07)",0.0,0.0,0.0,"(-1.0, 0.0, 0.0, 0.0, 8.999999999999999e-08, 0.0, 0.0, 0.0, 8.999999999999999e-08)"
1970/01/01/01:00:12.232000,87,12,232000000,base_link,3.47183635634e-05,-0.000207099364984,-0.701779657269,-0.712394202772,"(1.0, 0.0, 0.0, 0.0, 1.0, 0.0, 0.0, 0.0, 1.0)",-9.55323775997e-05,0.00755935395136,0.0107852220535,"(1.2184696791468346e-07, 0.0, 0.0, 0.0, 1.2184696791468346e-07, 0.0, 0.0, 0.0, 1.2184696791468346e-07)",0.0,0.0,0.0,"(-1.0, 0.0, 0.0, 0.0, 8.999999999999999e-08, 0.0, 0.0, 0.0, 8.999999999999999e-08)"
1970/01/01/01:00:12.252000,88,12,251000000,base_link,8.61704562618e-05,-0.000240203399293,-0.701869873257,-0.712305166896,"(1.0, 0.0, 0.0, 0.0, 1.0, 0.0, 0.0, 0.0, 1.0)",0.00390167627484,0.000158701266628,0.0119395609945,"(1.2184696791468346e-07, 0.0, 0.0, 0.0, 1.2184696791468346e-07, 0.0, 0.0, 0.0, 1.2184696791468346e-07)",0.0,0.0,0.0,"(-1.0, 0.0, 0.0, 0.0, 8.999999999999999e-08, 0.0, 0.0, 0.0, 8.999999999999999e-08)"
1970/01/01/01:00:12.272000,89,12,272000000,base_link,7.54331658826e-05,-0.000290017630062,-0.702030690485,-0.712146794186,"(1.0, 0.0, 0.0, 0.0, 1.0, 0.0, 0.0, 0.0, 1.0)",0.00309958262369,0.00212436309084,0.0232760068029,"(1.2184696791468346e-07, 0.0, 0.0, 0.0, 1.2184696791468346e-07, 0.0, 0.0, 0.0, 1.2184696791468346e-07)",0.0,0.0,0.0,"(-1.0, 0.0, 0.0, 0.0, 8.999999999999999e-08, 0.0, 0.0, 0.0, 8.999999999999999e-08)"
1970/01/01/01:00:12.292000,90,12,292000000,base_link,0.000147636850078,-0.000274324555596,-0.702145815589,-0.712033102075,"(1.0, 0.0, 0.0, 0.0, 1.0, 0.0, 0.0, 0.0, 1.0)",-0.00228641275316,0.0022393448744,0.0202421322465,"(1.2184696791468346e-07, 0.0, 0.0, 0.0, 1.2184696791468346e-07, 0.0, 0.0, 0.0, 1.2184696791468346e-07)",0.0,0.0,0.0,"(-1.0, 0.0, 0.0, 0.0, 8.999999999999999e-08, 0.0, 0.0, 0.0, 8.999999999999999e-08)"
1970/01/01/01:00:12.314000,91,12,313000000,base_link,0.000167345127003,-0.000331558766827,-0.702349276208,-0.711832423148,"(1.0, 0.0, 0.0, 0.0, 1.0, 0.0, 0.0, 0.0, 1.0)",0.00440443074331,0.00413785129786,0.0292570441961,"(1.2184696791468346e-07, 0.0, 0.0, 0.0, 1.2184696791468346e-07, 0.0, 0.0, 0.0, 1.2184696791468346e-07)",0.0,0.0,0.0,"(-1.0, 0.0, 0.0, 0.0, 8.999999999999999e-08, 0.0, 0.0, 0.0, 8.999999999999999e-08)"
1970/01/01/01:00:12.332000,92,12,331000000,base_link,0.000208234335574,-0.000432993703412,-0.702545215918,-0.711639012248,"(1.0, 0.0, 0.0, 0.0, 1.0, 0.0, 0.0, 0.0, 1.0)",0.00601384835318,0.0119818076491,0.0264059659094,"(1.2184696791468346e-07, 0.0, 0.0, 0.0, 1.2184696791468346e-07, 0.0, 0.0, 0.0, 1.2184696791468346e-07)",0.0,0.0,0.0,"(-1.0, 0.0, 0.0, 0.0, 8.999999999999999e-08, 0.0, 0.0, 0.0, 8.999999999999999e-08)"
1970/01/01/01:00:12.352000,93,12,351000000,base_link,0.000283957662341,-0.000439636472734,-0.702719798372,-0.711466537137,"(1.0, 0.0, 0.0, 0.0, 1.0, 0.0, 0.0, 0.0, 1.0)",-0.00142194982618,-0.00259793666191,0.0218229219317,"(1.2184696791468346e-07, 0.0, 0.0, 0.0, 1.2184696791468346e-07, 0.0, 0.0, 0.0, 1.2184696791468346e-07)",0.0,0.0,0.0,"(-1.0, 0.0, 0.0, 0.0, 8.999999999999999e-08, 0.0, 0.0, 0.0, 8.999999999999999e-08)"
1970/01/01/01:00:12.372000,94,12,372000000,base_link,0.000318404623248,-0.000529285309638,-0.702872272499,-0.711315917471,"(1.0, 0.0, 0.0, 0.0, 1.0, 0.0, 0.0, 0.0, 1.0)",0.00428440002725,0.00884331483394,0.0169214196503,"(1.2184696791468346e-07, 0.0, 0.0, 0.0, 1.2184696791468346e-07, 0.0, 0.0, 0.0, 1.2184696791468346e-07)",0.0,0.0,0.0,"(-1.0, 0.0, 0.0, 0.0, 8.999999999999999e-08, 0.0, 0.0, 0.0, 8.999999999999999e-08)"
1970/01/01/01:00:12.392000,95,12,392000000,base_link,0.000295944530634,-0.000553992603068,-0.703023951434,-0.711165840117,"(1.0, 0.0, 0.0, 0.0, 1.0, 0.0, 0.0, 0.0, 1.0)",0.00217005074956,-0.00142943230458,0.0165727268904,"(1.2184696791468346e-07, 0.0, 0.0, 0.0, 1.2184696791468346e-07, 0.0, 0.0, 0.0, 1.2184696791468346e-07)",0.0,0.0,0.0,"(-1.0, 0.0, 0.0, 0.0, 8.999999999999999e-08, 0.0, 0.0, 0.0, 8.999999999999999e-08)"
1970/01/01/01:00:12.414000,96,12,412000000,base_link,0.000288246731852,-0.000557536632366,-0.703138454214,-0.711052686036,"(1.0, 0.0, 0.0, 0.0, 1.0, 0.0, 0.0, 0.0, 1.0)",-0.000859095714986,0.00109190691728,0.0155812380835,"(1.2184696791468346e-07, 0.0, 0.0, 0.0, 1.2184696791468346e-07, 0.0, 0.0, 0.0, 1.2184696791468346e-07)",0.0,0.0,0.0,"(-1.0, 0.0, 0.0, 0.0, 8.999999999999999e-08, 0.0, 0.0, 0.0, 8.999999999999999e-08)"
1970/01/01/01:00:12.432000,97,12,432000000,base_link,0.000262096526246,-0.00054245948223,-0.703206072905,-0.710985910281,"(1.0, 0.0, 0.0, 0.0, 1.0, 0.0, 0.0, 0.0, 1.0)",0.000425392994657,-0.00309479609132,0.00755662191659,"(1.2184696791468346e-07, 0.0, 0.0, 0.0, 1.2184696791468346e-07, 0.0, 0.0, 0.0, 1.2184696791468346e-07)",0.0,0.0,0.0,"(-1.0, 0.0, 0.0, 0.0, 8.999999999999999e-08, 0.0, 0.0, 0.0, 8.999999999999999e-08)"
1970/01/01/01:00:12.452000,98,12,452000000,base_link,0.000271244542932,-0.000539114971339,-0.70325405347,-0.710938351185,"(1.0, 0.0, 0.0, 0.0, 1.0, 0.0, 0.0, 0.0, 1.0)",0.00101700576488,0.0013588584261,0.00449591502547,"(1.2184696791468346e-07, 0.0, 0.0, 0.0, 1.2184696791468346e-07, 0.0, 0.0, 0.0, 1.2184696791468346e-07)",0.0,0.0,0.0,"(-1.0, 0.0, 0.0, 0.0, 8.999999999999999e-08, 0.0, 0.0, 0.0, 8.999999999999999e-08)"
1970/01/01/01:00:12.472000,99,12,471000000,base_link,0.000143733512722,-0.000563151454869,-0.703228515114,-0.710963720953,"(1.0, 0.0, 0.0, 0.0, 1.0, 0.0, 0.0, 0.0, 1.0)",0.012098511681,-0.00555317522958,-0.00411390606314,"(1.2184696791468346e-07, 0.0, 0.0, 0.0, 1.2184696791468346e-07, 0.0, 0.0, 0.0, 1.2184696791468346e-07)",0.0,0.0,0.0,"(-1.0, 0.0, 0.0, 0.0, 8.999999999999999e-08, 0.0, 0.0, 0.0, 8.999999999999999e-08)"
1970/01/01/01:00:12.492000,100,12,492000000,base_link,0.000164226265358,-0.000581125027807,-0.703237887191,-0.710954433171,"(1.0, 0.0, 0.0, 0.0, 1.0, 0.0, 0.0, 0.0, 1.0)",0.000705731683411,0.00305962027051,0.0070921536535,"(1.2184696791468346e-07, 0.0, 0.0, 0.0, 1.2184696791468346e-07, 0.0, 0.0, 0.0, 1.2184696791468346e-07)",0.0,0.0,0.0,"(-1.0, 0.0, 0.0, 0.0, 8.999999999999999e-08, 0.0, 0.0, 0.0, 8.999999999999999e-08)"
1970/01/01/01:00:12.514000,101,12,514000000,base_link,0.000167614394533,-0.000645914529818,-0.703282628704,-0.710910113125,"(1.0, 0.0, 0.0, 0.0, 1.0, 0.0, 0.0, 0.0, 1.0)",0.00508015835658,0.0052101733163,0.00329759158194,"(1.2184696791468346e-07, 0.0, 0.0, 0.0, 1.2184696791468346e-07, 0.0, 0.0, 0.0, 1.2184696791468346e-07)",0.0,0.0,0.0,"(-1.0, 0.0, 0.0, 0.0, 8.999999999999999e-08, 0.0, 0.0, 0.0, 8.999999999999999e-08)"
1970/01/01/01:00:12.532000,102,12,532000000,base_link,0.000170616966479,-0.000726643669475,-0.703298200319,-0.710894541511,"(1.0, 0.0, 0.0, 0.0, 1.0, 0.0, 0.0, 0.0, 1.0)",0.00648520793766,0.00629207771271,0.00458063464612,"(1.2184696791468346e-07, 0.0, 0.0, 0.0, 1.2184696791468346e-07, 0.0, 0.0, 0.0, 1.2184696791468346e-07)",0.0,0.0,0.0,"(-1.0, 0.0, 0.0, 0.0, 8.999999999999999e-08, 0.0, 0.0, 0.0, 8.999999999999999e-08)"
1970/01/01/01:00:12.552000,103,12,552000000,base_link,0.000220048757814,-0.000727703391065,-0.703285030416,-0.710907542826,"(1.0, 0.0, 0.0, 0.0, 1.0, 0.0, 0.0, 0.0, 1.0)",-0.00483618769795,0.00100573955569,0.00116041488945,"(1.2184696791468346e-07, 0.0, 0.0, 0.0, 1.2184696791468346e-07, 0.0, 0.0, 0.0, 1.2184696791468346e-07)",0.0,0.0,0.0,"(-1.0, 0.0, 0.0, 0.0, 8.999999999999999e-08, 0.0, 0.0, 0.0, 8.999999999999999e-08)"
1970/01/01/01:00:12.572000,104,12,572000000,base_link,0.000227647476517,-0.000774448423706,-0.703305981351,-0.710886844772,"(1.0, 0.0, 0.0, 0.0, 1.0, 0.0, 0.0, 0.0, 1.0)",0.00211084051989,0.00641545793042,0.00224715378135,"(1.2184696791468346e-07, 0.0, 0.0, 0.0, 1.2184696791468346e-07, 0.0, 0.0, 0.0, 1.2184696791468346e-07)",0.0,0.0,0.0,"(-1.0, 0.0, 0.0, 0.0, 8.999999999999999e-08, 0.0, 0.0, 0.0, 8.999999999999999e-08)"
1970/01/01/01:00:12.592000,105,12,592000000,base_link,0.000159564922694,-0.000802710766764,-0.703372888485,-0.710820611988,"(1.0, 0.0, 0.0, 0.0, 1.0, 0.0, 0.0, 0.0, 1.0)",0.00580685213208,-0.00538289407268,0.0118435993791,"(1.2184696791468346e-07, 0.0, 0.0, 0.0, 1.2184696791468346e-07, 0.0, 0.0, 0.0, 1.2184696791468346e-07)",0.0,0.0,0.0,"(-1.0, 0.0, 0.0, 0.0, 8.999999999999999e-08, 0.0, 0.0, 0.0, 8.999999999999999e-08)"
1970/01/01/01:00:12.614000,106,12,614000000,base_link,0.000136137119504,-0.000847008750911,-0.703448021499,-0.710746237617,"(1.0, 0.0, 0.0, 0.0, 1.0, 0.0, 0.0, 0.0, 1.0)",0.0024356385693,-3.29772738041e-05,0.0121012143791,"(1.2184696791468346e-07, 0.0, 0.0, 0.0, 1.2184696791468346e-07, 0.0, 0.0, 0.0, 1.2184696791468346e-07)",0.0,0.0,0.0,"(-1.0, 0.0, 0.0, 0.0, 8.999999999999999e-08, 0.0, 0.0, 0.0, 8.999999999999999e-08)"
1970/01/01/01:00:12.632000,107,12,632000000,base_link,6.74123201501e-05,-0.000829290693241,-0.703490486095,-0.710704278783,"(1.0, 0.0, 0.0, 0.0, 1.0, 0.0, 0.0, 0.0, 1.0)",0.00277560157701,-0.0106396544725,0.0077165775001,"(1.2184696791468346e-07, 0.0, 0.0, 0.0, 1.2184696791468346e-07, 0.0, 0.0, 0.0, 1.2184696791468346e-07)",0.0,0.0,0.0,"(-1.0, 0.0, 0.0, 0.0, 8.999999999999999e-08, 0.0, 0.0, 0.0, 8.999999999999999e-08)"
1970/01/01/01:00:12.652000,108,12,652000000,base_link,9.17063769013e-05,-0.000754461494991,-0.703630172605,-0.710566025266,"(1.0, 0.0, 0.0, 0.0, 1.0, 0.0, 0.0, 0.0, 1.0)",-0.00457441108301,-0.00391822261736,0.0199592150748,"(1.2184696791468346e-07, 0.0, 0.0, 0.0, 1.2184696791468346e-07, 0.0, 0.0, 0.0, 1.2184696791468346e-07)",0.0,0.0,0.0,"(-1.0, 0.0, 0.0, 0.0, 8.999999999999999e-08, 0.0, 0.0, 0.0, 8.999999999999999e-08)"
1970/01/01/01:00:12.672000,109,12,672000000,base_link,0.000179913227708,-0.000763223594306,-0.703722294091,-0.710474831011,"(1.0, 0.0, 0.0, 0.0, 1.0, 0.0, 0.0, 0.0, 1.0)",-0.00491494964808,0.00396150816232,0.0135628432035,"(1.2184696791468346e-07, 0.0, 0.0, 0.0, 1.2184696791468346e-07, 0.0, 0.0, 0.0, 1.2184696791468346e-07)",0.0,0.0,0.0,"(-1.0, 0.0, 0.0, 0.0, 8.999999999999999e-08, 0.0, 0.0, 0.0, 8.999999999999999e-08)"
1970/01/01/01:00:12.692000,110,12,692000000,base_link,0.000209327550326,-0.000808396351933,-0.703788459375,-0.710409171489,"(1.0, 0.0, 0.0, 0.0, 1.0, 0.0, 0.0, 0.0, 1.0)",0.00136143481359,0.00446034641936,0.00883797369897,"(1.2184696791468346e-07, 0.0, 0.0, 0.0, 1.2184696791468346e-07, 0.0, 0.0, 0.0, 1.2184696791468346e-07)",0.0,0.0,0.0,"(-1.0, 0.0, 0.0, 0.0, 8.999999999999999e-08, 0.0, 0.0, 0.0, 8.999999999999999e-08)"
1970/01/01/01:00:12.711000,111,12,712000000,base_link,0.000200968850682,-0.000848798510247,-0.703918998373,-0.71027972831,"(1.0, 0.0, 0.0, 0.0, 1.0, 0.0, 0.0, 0.0, 1.0)",0.00443204026669,0.000885850924533,0.0205150134861,"(1.2184696791468346e-07, 0.0, 0.0, 0.0, 1.2184696791468346e-07, 0.0, 0.0, 0.0, 1.2184696791468346e-07)",0.0,0.0,0.0,"(-1.0, 0.0, 0.0, 0.0, 8.999999999999999e-08, 0.0, 0.0, 0.0, 8.999999999999999e-08)"
1970/01/01/01:00:12.732000,112,12,732000000,base_link,0.000279098385893,-0.000910664012904,-0.704023911427,-0.710175658192,"(1.0, 0.0, 0.0, 0.0, 1.0, 0.0, 0.0, 0.0, 1.0)",0.00195919512771,0.0104024410248,0.0149087775499,"(1.2184696791468346e-07, 0.0, 0.0, 0.0, 1.2184696791468346e-07, 0.0, 0.0, 0.0, 1.2184696791468346e-07)",0.0,0.0,0.0,"(-1.0, 0.0, 0.0, 0.0, 8.999999999999999e-08, 0.0, 0.0, 0.0, 8.999999999999999e-08)"
1970/01/01/01:00:12.752000,113,12,751000000,base_link,0.000276498102324,-0.000894199515285,-0.704130858726,-0.710069638124,"(1.0, 0.0, 0.0, 0.0, 1.0, 0.0, 0.0, 0.0, 1.0)",0.00117827870417,-0.00588273908943,0.0162701308727,"(1.2184696791468346e-07, 0.0, 0.0, 0.0, 1.2184696791468346e-07, 0.0, 0.0, 0.0, 1.2184696791468346e-07)",0.0,0.0,0.0,"(-1.0, 0.0, 0.0, 0.0, 8.999999999999999e-08, 0.0, 0.0, 0.0, 8.999999999999999e-08)"
1970/01/01/01:00:12.772000,114,12,772000000,base_link,0.000224483108418,-0.000871110883097,-0.704195655555,-0.710005431351,"(1.0, 0.0, 0.0, 0.0, 1.0, 0.0, 0.0, 0.0, 1.0)",0.00275855418295,-0.00903936475515,0.0122945383191,"(1.2184696791468346e-07, 0.0, 0.0, 0.0, 1.2184696791468346e-07, 0.0, 0.0, 0.0, 1.2184696791468346e-07)",0.0,0.0,0.0,"(-1.0, 0.0, 0.0, 0.0, 8.999999999999999e-08, 0.0, 0.0, 0.0, 8.999999999999999e-08)"
1970/01/01/01:00:12.792000,115,12,792000000,base_link,0.000216799087621,-0.000899993533923,-0.704243911062,-0.709957513019,"(1.0, 0.0, 0.0, 0.0, 1.0, 0.0, 0.0, 0.0, 1.0)",0.00194102805108,-0.00144815258682,0.00928774941713,"(1.2184696791468346e-07, 0.0, 0.0, 0.0, 1.2184696791468346e-07, 0.0, 0.0, 0.0, 1.2184696791468346e-07)",0.0,0.0,0.0,"(-1.0, 0.0, 0.0, 0.0, 8.999999999999999e-08, 0.0, 0.0, 0.0, 8.999999999999999e-08)"
1970/01/01/01:00:12.812000,116,12,812000000,base_link,0.000219691312203,-0.000925685351393,-0.704245227492,-0.709956196588,"(1.0, 0.0, 0.0, 0.0, 1.0, 0.0, 0.0, 0.0, 1.0)",0.00189902144484,0.0028809576761,-0.00099966826383,"(1.2184696791468346e-07, 0.0, 0.0, 0.0, 1.2184696791468346e-07, 0.0, 0.0, 0.0, 1.2184696791468346e-07)",0.0,0.0,0.0,"(-1.0, 0.0, 0.0, 0.0, 8.999999999999999e-08, 0.0, 0.0, 0.0, 8.999999999999999e-08)"
1970/01/01/01:00:12.832000,117,12,832000000,base_link,0.000198587718377,-0.000964561003537,-0.704306362155,-0.709895567688,"(1.0, 0.0, 0.0, 0.0, 1.0, 0.0, 0.0, 0.0, 1.0)",0.00514519261196,-2.13042949326e-05,0.0135242827237,"(1.2184696791468346e-07, 0.0, 0.0, 0.0, 1.2184696791468346e-07, 0.0, 0.0, 0.0, 1.2184696791468346e-07)",0.0,0.0,0.0,"(-1.0, 0.0, 0.0, 0.0, 8.999999999999999e-08, 0.0, 0.0, 0.0, 8.999999999999999e-08)"
1970/01/01/01:00:12.852000,118,12,852000000,base_link,0.00023340175611,-0.000984379077324,-0.704319709535,-0.709882220308,"(1.0, 0.0, 0.0, 0.0, 1.0, 0.0, 0.0, 0.0, 1.0)",-0.0023460413795,0.00302208587527,0.00328086735681,"(1.2184696791468346e-07, 0.0, 0.0, 0.0, 1.2184696791468346e-07, 0.0, 0.0, 0.0, 1.2184696791468346e-07)",0.0,0.0,0.0,"(-1.0, 0.0, 0.0, 0.0, 8.999999999999999e-08, 0.0, 0.0, 0.0, 8.999999999999999e-08)"
1970/01/01/01:00:12.872000,119,12,872000000,base_link,0.000153300312267,-0.000976075283828,-0.704325483653,-0.709876614777,"(1.0, 0.0, 0.0, 0.0, 1.0, 0.0, 0.0, 0.0, 1.0)",0.00308417342603,-0.00245530903339,-0.000880202045664,"(1.2184696791468346e-07, 0.0, 0.0, 0.0, 1.2184696791468346e-07, 0.0, 0.0, 0.0, 1.2184696791468346e-07)",0.0,0.0,0.0,"(-1.0, 0.0, 0.0, 0.0, 8.999999999999999e-08, 0.0, 0.0, 0.0, 8.999999999999999e-08)"
1970/01/01/01:00:12.892000,120,12,892000000,base_link,0.000227885869629,-0.000961957365507,-0.704359827408,-0.709842355316,"(1.0, 0.0, 0.0, 0.0, 1.0, 0.0, 0.0, 0.0, 1.0)",-0.00856746081263,0.00561904907227,0.00727266585454,"(1.2184696791468346e-07, 0.0, 0.0, 0.0, 1.2184696791468346e-07, 0.0, 0.0, 0.0, 1.2184696791468346e-07)",0.0,0.0,0.0,"(-1.0, 0.0, 0.0, 0.0, 8.999999999999999e-08, 0.0, 0.0, 0.0, 8.999999999999999e-08)"
1970/01/01/01:00:12.914000,121,12,914000000,base_link,0.000211577632274,-0.00101650621231,-0.704361067776,-0.709841114948,"(1.0, 0.0, 0.0, 0.0, 1.0, 0.0, 0.0, 0.0, 1.0)",0.0105931451544,0.00117825926282,-0.00387752987444,"(1.2184696791468346e-07, 0.0, 0.0, 0.0, 1.2184696791468346e-07, 0.0, 0.0, 0.0, 1.2184696791468346e-07)",0.0,0.0,0.0,"(-1.0, 0.0, 0.0, 0.0, 8.999999999999999e-08, 0.0, 0.0, 0.0, 8.999999999999999e-08)"
1970/01/01/01:00:12.932000,122,12,931000000,base_link,0.000240174762897,-0.00101761882325,-0.70436115668,-0.709841110338,"(1.0, 0.0, 0.0, 0.0, 1.0, 0.0, 0.0, 0.0, 1.0)",-0.00478186272085,0.0014295806177,0.000971231725998,"(1.2184696791468346e-07, 0.0, 0.0, 0.0, 1.2184696791468346e-07, 0.0, 0.0, 0.0, 1.2184696791468346e-07)",0.0,0.0,0.0,"(-1.0, 0.0, 0.0, 0.0, 8.999999999999999e-08, 0.0, 0.0, 0.0, 8.999999999999999e-08)"
1970/01/01/01:00:12.952000,123,12,952000000,base_link,0.00023687640157,-0.00103224719588,-0.704363431292,-0.709838835725,"(1.0, 0.0, 0.0, 0.0, 1.0, 0.0, 0.0, 0.0, 1.0)",0.00227675237693,-0.00084685679758,0.000403286860092,"(1.2184696791468346e-07, 0.0, 0.0, 0.0, 1.2184696791468346e-07, 0.0, 0.0, 0.0, 1.2184696791468346e-07)",0.0,0.0,0.0,"(-1.0, 0.0, 0.0, 0.0, 8.999999999999999e-08, 0.0, 0.0, 0.0, 8.999999999999999e-08)"
1970/01/01/01:00:12.972000,124,12,972000000,base_link,0.00030370718576,-0.0010465049726,-0.704362449567,-0.709839733157,"(1.0, 0.0, 0.0, 0.0, 1.0, 0.0, 0.0, 0.0, 1.0)",-0.0042476747185,0.00754162017256,-0.000131053500809,"(1.2184696791468346e-07, 0.0, 0.0, 0.0, 1.2184696791468346e-07, 0.0, 0.0, 0.0, 1.2184696791468346e-07)",0.0,0.0,0.0,"(-1.0, 0.0, 0.0, 0.0, 8.999999999999999e-08, 0.0, 0.0, 0.0, 8.999999999999999e-08)"
1970/01/01/01:00:12.992000,125,12,992000000,base_link,0.000400938771663,-0.0010759088614,-0.70436223126,-0.709839867171,"(1.0, 0.0, 0.0, 0.0, 1.0, 0.0, 0.0, 0.0, 1.0)",-0.00107978726737,0.0130210667849,-0.000573135796003,"(1.2184696791468346e-07, 0.0, 0.0, 0.0, 1.2184696791468346e-07, 0.0, 0.0, 0.0, 1.2184696791468346e-07)",0.0,0.0,0.0,"(-1.0, 0.0, 0.0, 0.0, 8.999999999999999e-08, 0.0, 0.0, 0.0, 8.999999999999999e-08)"
1970/01/01/01:00:13.015000,126,13,14000000,base_link,0.000359279410724,-0.00115007957688,-0.704405075507,-0.709797275805,"(1.0, 0.0, 0.0, 0.0, 1.0, 0.0, 0.0, 0.0, 1.0)",0.0102719189599,-0.00181236083154,0.00431013712659,"(1.2184696791468346e-07, 0.0, 0.0, 0.0, 1.2184696791468346e-07, 0.0, 0.0, 0.0, 1.2184696791468346e-07)",0.0,0.0,0.0,"(-1.0, 0.0, 0.0, 0.0, 8.999999999999999e-08, 0.0, 0.0, 0.0, 8.999999999999999e-08)"
1970/01/01/01:00:13.032000,127,13,32000000,base_link,0.000360566865237,-0.0011445390773,-0.704433484952,-0.709769034946,"(1.0, 0.0, 0.0, 0.0, 1.0, 0.0, 0.0, 0.0, 1.0)",0.00153146311641,-0.00524351513013,0.00286507164128,"(1.2184696791468346e-07, 0.0, 0.0, 0.0, 1.2184696791468346e-07, 0.0, 0.0, 0.0, 1.2184696791468346e-07)",0.0,0.0,0.0,"(-1.0, 0.0, 0.0, 0.0, 8.999999999999999e-08, 0.0, 0.0, 0.0, 8.999999999999999e-08)"
1970/01/01/01:00:13.052000,128,13,52000000,base_link,0.000383063692288,-0.00115072318066,-0.704491143158,-0.709711713915,"(1.0, 0.0, 0.0, 0.0, 1.0, 0.0, 0.0, 0.0, 1.0)",-0.00126216409262,0.0027971980162,0.00946243386716,"(1.2184696791468346e-07, 0.0, 0.0, 0.0, 1.2184696791468346e-07, 0.0, 0.0, 0.0, 1.2184696791468346e-07)",0.0,0.0,0.0,"(-1.0, 0.0, 0.0, 0.0, 8.999999999999999e-08, 0.0, 0.0, 0.0, 8.999999999999999e-08)"
1970/01/01/01:00:13.072000,129,13,71000000,base_link,0.000434667034138,-0.0011731889738,-0.704567175085,-0.709636272044,"(1.0, 0.0, 0.0, 0.0, 1.0, 0.0, 0.0, 0.0, 1.0)",-0.00242141308263,0.00538548780605,0.014003903605,"(1.2184696791468346e-07, 0.0, 0.0, 0.0, 1.2184696791468346e-07, 0.0, 0.0, 0.0, 1.2184696791468346e-07)",0.0,0.0,0.0,"(-1.0, 0.0, 0.0, 0.0, 8.999999999999999e-08, 0.0, 0.0, 0.0, 8.999999999999999e-08)"
1970/01/01/01:00:13.092000,130,13,92000000,base_link,0.000497963945021,-0.00122892398274,-0.704661797723,-0.709542239462,"(1.0, 0.0, 0.0, 0.0, 1.0, 0.0, 0.0, 0.0, 1.0)",-0.00223978469148,0.0101757487282,0.00666262721643,"(1.2184696791468346e-07, 0.0, 0.0, 0.0, 1.2184696791468346e-07, 0.0, 0.0, 0.0, 1.2184696791468346e-07)",0.0,0.0,0.0,"(-1.0, 0.0, 0.0, 0.0, 8.999999999999999e-08, 0.0, 0.0, 0.0, 8.999999999999999e-08)"
1970/01/01/01:00:13.114000,131,13,114000000,base_link,0.000530114787605,-0.00118934195929,-0.704761030996,-0.709443680538,"(1.0, 0.0, 0.0, 0.0, 1.0, 0.0, 0.0, 0.0, 1.0)",-0.0122474087402,-0.00507384818047,0.00963529013097,"(1.2184696791468346e-07, 0.0, 0.0, 0.0, 1.2184696791468346e-07, 0.0, 0.0, 0.0, 1.2184696791468346e-07)",0.0,0.0,0.0,"(-1.0, 0.0, 0.0, 0.0, 8.999999999999999e-08, 0.0, 0.0, 0.0, 8.999999999999999e-08)"
1970/01/01/01:00:13.132000,132,13,132000000,base_link,0.000530572249663,-0.0011224506919,-0.704776048775,-0.709428747054,"(1.0, 0.0, 0.0, 0.0, 1.0, 0.0, 0.0, 0.0, 1.0)",-0.00270329043269,-0.00842659827322,0.001457716804,"(1.2184696791468346e-07, 0.0, 0.0, 0.0, 1.2184696791468346e-07, 0.0, 0.0, 0.0, 1.2184696791468346e-07)",0.0,0.0,0.0,"(-1.0, 0.0, 0.0, 0.0, 8.999999999999999e-08, 0.0, 0.0, 0.0, 8.999999999999999e-08)"
1970/01/01/01:00:13.152000,133,13,152000000,base_link,0.000460458147772,-0.0012132993969,-0.70490431744,-0.709301321326,"(1.0, 0.0, 0.0, 0.0, 1.0, 0.0, 0.0, 0.0, 1.0)",0.0127421841025,-0.00133694743272,0.0186075381935,"(1.2184696791468346e-07, 0.0, 0.0, 0.0, 1.2184696791468346e-07, 0.0, 0.0, 0.0, 1.2184696791468346e-07)",0.0,0.0,0.0,"(-1.0, 0.0, 0.0, 0.0, 8.999999999999999e-08, 0.0, 0.0, 0.0, 8.999999999999999e-08)"
1970/01/01/01:00:13.172000,134,13,171000000,base_link,0.000484545977194,-0.00114591012581,-0.704996586934,-0.709209726181,"(1.0, 0.0, 0.0, 0.0, 1.0, 0.0, 0.0, 0.0, 1.0)",-0.00848107133061,-0.00488782953471,0.0127718998119,"(1.2184696791468346e-07, 0.0, 0.0, 0.0, 1.2184696791468346e-07, 0.0, 0.0, 0.0, 1.2184696791468346e-07)",0.0,0.0,0.0,"(-1.0, 0.0, 0.0, 0.0, 8.999999999999999e-08, 0.0, 0.0, 0.0, 8.999999999999999e-08)"
1970/01/01/01:00:13.192000,135,13,192000000,base_link,0.000581408181367,-0.00120258707976,-0.705109810162,-0.709096840128,"(1.0, 0.0, 0.0, 0.0, 1.0, 0.0, 0.0, 0.0, 1.0)",-2.8355512768e-05,0.0107679404318,0.0120582953095,"(1.2184696791468346e-07, 0.0, 0.0, 0.0, 1.2184696791468346e-07, 0.0, 0.0, 0.0, 1.2184696791468346e-07)",0.0,0.0,0.0,"(-1.0, 0.0, 0.0, 0.0, 8.999999999999999e-08, 0.0, 0.0, 0.0, 8.999999999999999e-08)"
1970/01/01/01:00:13.214000,136,13,213000000,base_link,0.000678491677073,-0.00118909412018,-0.705135381775,-0.709071437103,"(1.0, 0.0, 0.0, 0.0, 1.0, 0.0, 0.0, 0.0, 1.0)",-0.00810622982681,0.00273445621133,0.0078803608194,"(1.2184696791468346e-07, 0.0, 0.0, 0.0, 1.2184696791468346e-07, 0.0, 0.0, 0.0, 1.2184696791468346e-07)",0.0,0.0,0.0,"(-1.0, 0.0, 0.0, 0.0, 8.999999999999999e-08, 0.0, 0.0, 0.0, 8.999999999999999e-08)"
1970/01/01/01:00:13.232000,137,13,231000000,base_link,0.000686338358363,-0.00117065046994,-0.705201529278,-0.709005626775,"(1.0, 0.0, 0.0, 0.0, 1.0, 0.0, 0.0, 0.0, 1.0)",-0.000879566709045,1.84437958524e-05,0.0116166621447,"(1.2184696791468346e-07, 0.0, 0.0, 0.0, 1.2184696791468346e-07, 0.0, 0.0, 0.0, 1.2184696791468346e-07)",0.0,0.0,0.0,"(-1.0, 0.0, 0.0, 0.0, 8.999999999999999e-08, 0.0, 0.0, 0.0, 8.999999999999999e-08)"
1970/01/01/01:00:13.252000,138,13,252000000,base_link,0.000673702659093,-0.00127800495506,-0.705193195562,-0.709013791903,"(1.0, 0.0, 0.0, 0.0, 1.0, 0.0, 0.0, 0.0, 1.0)",0.00740128196776,0.00477353297174,-0.00096454739105,"(1.2184696791468346e-07, 0.0, 0.0, 0.0, 1.2184696791468346e-07, 0.0, 0.0, 0.0, 1.2184696791468346e-07)",0.0,0.0,0.0,"(-1.0, 0.0, 0.0, 0.0, 8.999999999999999e-08, 0.0, 0.0, 0.0, 8.999999999999999e-08)"
1970/01/01/01:00:13.273000,139,13,273000000,base_link,0.000618253767168,-0.00133658423831,-0.705215186174,-0.708991801291,"(1.0, 0.0, 0.0, 0.0, 1.0, 0.0, 0.0, 0.0, 1.0)",0.00803207792342,-0.00080428714864,0.00225482648239,"(1.2184696791468346e-07, 0.0, 0.0, 0.0, 1.2184696791468346e-07, 0.0, 0.0, 0.0, 1.2184696791468346e-07)",0.0,0.0,0.0,"(-1.0, 0.0, 0.0, 0.0, 8.999999999999999e-08, 0.0, 0.0, 0.0, 8.999999999999999e-08)"
1970/01/01/01:00:13.292000,140,13,291000000,base_link,0.000640792288317,-0.00135657633248,-0.705230221897,-0.708976849861,"(1.0, 0.0, 0.0, 0.0, 1.0, 0.0, 0.0, 0.0, 1.0)",-0.00114845857024,0.0037268253509,0.00239972164854,"(1.2184696791468346e-07, 0.0, 0.0, 0.0, 1.2184696791468346e-07, 0.0, 0.0, 0.0, 1.2184696791468346e-07)",0.0,0.0,0.0,"(-1.0, 0.0, 0.0, 0.0, 8.999999999999999e-08, 0.0, 0.0, 0.0, 8.999999999999999e-08)"
1970/01/01/01:00:13.313000,141,13,313000000,base_link,0.000738084830746,-0.00135070656064,-0.705242796969,-0.708964190496,"(1.0, 0.0, 0.0, 0.0, 1.0, 0.0, 0.0, 0.0, 1.0)",-0.0111317131668,0.00735768442973,0.00434635858983,"(1.2184696791468346e-07, 0.0, 0.0, 0.0, 1.2184696791468346e-07, 0.0, 0.0, 0.0, 1.2184696791468346e-07)",0.0,0.0,0.0,"(-1.0, 0.0, 0.0, 0.0, 8.999999999999999e-08, 0.0, 0.0, 0.0, 8.999999999999999e-08)"
1970/01/01/01:00:13.332000,142,13,332000000,base_link,0.00075259032309,-0.00134614179765,-0.705222416005,-0.70898457146,"(1.0, 0.0, 0.0, 0.0, 1.0, 0.0, 0.0, 0.0, 1.0)",-0.00290730316192,-0.00188969320152,-0.00351944263093,"(1.2184696791468346e-07, 0.0, 0.0, 0.0, 1.2184696791468346e-07, 0.0, 0.0, 0.0, 1.2184696791468346e-07)",0.0,0.0,0.0,"(-1.0, 0.0, 0.0, 0.0, 8.999999999999999e-08, 0.0, 0.0, 0.0, 8.999999999999999e-08)"
1970/01/01/01:00:13.352000,143,13,351000000,base_link,0.000754208078832,-0.00130346659065,-0.70522027557,-0.708986627601,"(1.0, 0.0, 0.0, 0.0, 1.0, 0.0, 0.0, 0.0, 1.0)",-0.00269915396348,-0.00558692216873,-0.002491180785,"(1.2184696791468346e-07, 0.0, 0.0, 0.0, 1.2184696791468346e-07, 0.0, 0.0, 0.0, 1.2184696791468346e-07)",0.0,0.0,0.0,"(-1.0, 0.0, 0.0, 0.0, 8.999999999999999e-08, 0.0, 0.0, 0.0, 8.999999999999999e-08)"
1970/01/01/01:00:13.372000,144,13,372000000,base_link,0.000827782749795,-0.00127600880376,-0.705279124095,-0.708928200544,"(1.0, 0.0, 0.0, 0.0, 1.0, 0.0, 0.0, 0.0, 1.0)",-0.012284389697,0.00290268287063,0.00723076518625,"(1.2184696791468346e-07, 0.0, 0.0, 0.0, 1.2184696791468346e-07, 0.0, 0.0, 0.0, 1.2184696791468346e-07)",0.0,0.0,0.0,"(-1.0, 0.0, 0.0, 0.0, 8.999999999999999e-08, 0.0, 0.0, 0.0, 8.999999999999999e-08)"
1970/01/01/01:00:13.392000,145,13,392000000,base_link,0.000805713297551,-0.00122598870581,-0.705226209715,-0.708980862044,"(1.0, 0.0, 0.0, 0.0, 1.0, 0.0, 0.0, 0.0, 1.0)",-0.00324978469871,-0.00549158779904,-0.010660645552,"(1.2184696791468346e-07, 0.0, 0.0, 0.0, 1.2184696791468346e-07, 0.0, 0.0, 0.0, 1.2184696791468346e-07)",0.0,0.0,0.0,"(-1.0, 0.0, 0.0, 0.0, 8.999999999999999e-08, 0.0, 0.0, 0.0, 8.999999999999999e-08)"
1970/01/01/01:00:13.413000,146,13,413000000,base_link,0.000856964873737,-0.00125455651062,-0.705252681064,-0.708954559282,"(1.0, 0.0, 0.0, 0.0, 1.0, 0.0, 0.0, 0.0, 1.0)",-0.00253426749259,0.00764499651268,0.000309529394144,"(1.2184696791468346e-07, 0.0, 0.0, 0.0, 1.2184696791468346e-07, 0.0, 0.0, 0.0, 1.2184696791468346e-07)",0.0,0.0,0.0,"(-1.0, 0.0, 0.0, 0.0, 8.999999999999999e-08, 0.0, 0.0, 0.0, 8.999999999999999e-08)"
1970/01/01/01:00:13.432000,147,13,432000000,base_link,0.000829628629472,-0.00129019864749,-0.705316844208,-0.708890480432,"(1.0, 0.0, 0.0, 0.0, 1.0, 0.0, 0.0, 0.0, 1.0)",0.00845409370959,0.000579612213187,0.00725597748533,"(1.2184696791468346e-07, 0.0, 0.0, 0.0, 1.2184696791468346e-07, 0.0, 0.0, 0.0, 1.2184696791468346e-07)",0.0,0.0,0.0,"(-1.0, 0.0, 0.0, 0.0, 8.999999999999999e-08, 0.0, 0.0, 0.0, 8.999999999999999e-08)"
1970/01/01/01:00:13.452000,148,13,452000000,base_link,0.000846764965966,-0.00132530382364,-0.705323072392,-0.708884336541,"(1.0, 0.0, 0.0, 0.0, 1.0, 0.0, 0.0, 0.0, 1.0)",-0.00203626346774,0.00322395958938,-0.0018601649208,"(1.2184696791468346e-07, 0.0, 0.0, 0.0, 1.2184696791468346e-07, 0.0, 0.0, 0.0, 1.2184696791468346e-07)",0.0,0.0,0.0,"(-1.0, 0.0, 0.0, 0.0, 8.999999999999999e-08, 0.0, 0.0, 0.0, 8.999999999999999e-08)"
1970/01/01/01:00:13.471000,149,13,471000000,base_link,0.000830452715605,-0.00138565294524,-0.705296180563,-0.708910975489,"(1.0, 0.0, 0.0, 0.0, 1.0, 0.0, 0.0, 0.0, 1.0)",0.006148586981,-0.000885823392309,-0.00627398770303,"(1.2184696791468346e-07, 0.0, 0.0, 0.0, 1.2184696791468346e-07, 0.0, 0.0, 0.0, 1.2184696791468346e-07)",0.0,0.0,0.0,"(-1.0, 0.0, 0.0, 0.0, 8.999999999999999e-08, 0.0, 0.0, 0.0, 8.999999999999999e-08)"
1970/01/01/01:00:13.492000,150,13,492000000,base_link,0.000874050708099,-0.00145135062129,-0.705268733909,-0.708938084968,"(1.0, 0.0, 0.0, 0.0, 1.0, 0.0, 0.0, 0.0, 1.0)",0.00158655759878,0.00717161316425,-0.00537477619946,"(1.2184696791468346e-07, 0.0, 0.0, 0.0, 1.2184696791468346e-07, 0.0, 0.0, 0.0, 1.2184696791468346e-07)",0.0,0.0,0.0,"(-1.0, 0.0, 0.0, 0.0, 8.999999999999999e-08, 0.0, 0.0, 0.0, 8.999999999999999e-08)"
1970/01/01/01:00:13.514000,151,13,514000000,base_link,0.000904789857632,-0.00162477854384,-0.705277693407,-0.708928704002,"(1.0, 0.0, 0.0, 0.0, 1.0, 0.0, 0.0, 0.0, 1.0)",0.00595762580633,0.00713005615398,-0.000733650173061,"(1.2184696791468346e-07, 0.0, 0.0, 0.0, 1.2184696791468346e-07, 0.0, 0.0, 0.0, 1.2184696791468346e-07)",0.0,0.0,0.0,"(-1.0, 0.0, 0.0, 0.0, 8.999999999999999e-08, 0.0, 0.0, 0.0, 8.999999999999999e-08)"
1970/01/01/01:00:13.532000,152,13,532000000,base_link,0.000931739639168,-0.00165432085047,-0.705216422426,-0.708989553514,"(1.0, 0.0, 0.0, 0.0, 1.0, 0.0, 0.0, 0.0, 1.0)",-0.000579849234782,0.00350833847187,-0.0117203313857,"(1.2184696791468346e-07, 0.0, 0.0, 0.0, 1.2184696791468346e-07, 0.0, 0.0, 0.0, 1.2184696791468346e-07)",0.0,0.0,0.0,"(-1.0, 0.0, 0.0, 0.0, 8.999999999999999e-08, 0.0, 0.0, 0.0, 8.999999999999999e-08)"
1970/01/01/01:00:13.552000,153,13,552000000,base_link,0.000910124603214,-0.0017123975202,-0.705190601555,-0.709015121505,"(1.0, 0.0, 0.0, 0.0, 1.0, 0.0, 0.0, 0.0, 1.0)",0.00470286607742,0.000533412443474,-0.00505066802725,"(1.2184696791468346e-07, 0.0, 0.0, 0.0, 1.2184696791468346e-07, 0.0, 0.0, 0.0, 1.2184696791468346e-07)",0.0,0.0,0.0,"(-1.0, 0.0, 0.0, 0.0, 8.999999999999999e-08, 0.0, 0.0, 0.0, 8.999999999999999e-08)"
1970/01/01/01:00:13.572000,154,13,572000000,base_link,0.000957123895773,-0.00174888158564,-0.705240740664,-0.708965235276,"(1.0, 0.0, 0.0, 0.0, 1.0, 0.0, 0.0, 0.0, 1.0)",0.00300691090524,0.00926634576172,0.00575578585267,"(1.2184696791468346e-07, 0.0, 0.0, 0.0, 1.2184696791468346e-07, 0.0, 0.0, 0.0, 1.2184696791468346e-07)",0.0,0.0,0.0,"(-1.0, 0.0, 0.0, 0.0, 8.999999999999999e-08, 0.0, 0.0, 0.0, 8.999999999999999e-08)"
1970/01/01/01:00:13.592000,155,13,592000000,base_link,0.00094701334426,-0.00173271407102,-0.705259111586,-0.708946948648,"(1.0, 0.0, 0.0, 0.0, 1.0, 0.0, 0.0, 0.0, 1.0)",0.00130988995079,-0.0046511455439,-0.00253016338684,"(1.2184696791468346e-07, 0.0, 0.0, 0.0, 1.2184696791468346e-07, 0.0, 0.0, 0.0, 1.2184696791468346e-07)",0.0,0.0,0.0,"(-1.0, 0.0, 0.0, 0.0, 8.999999999999999e-08, 0.0, 0.0, 0.0, 8.999999999999999e-08)"
1970/01/01/01:00:13.611000,156,13,611000000,base_link,0.000872886710101,-0.0017679683046,-0.70526469094,-0.708941369294,"(1.0, 0.0, 0.0, 0.0, 1.0, 0.0, 0.0, 0.0, 1.0)",0.00582686718553,-0.0048320190981,-0.00189435656648,"(1.2184696791468346e-07, 0.0, 0.0, 0.0, 1.2184696791468346e-07, 0.0, 0.0, 0.0, 1.2184696791468346e-07)",0.0,0.0,0.0,"(-1.0, 0.0, 0.0, 0.0, 8.999999999999999e-08, 0.0, 0.0, 0.0, 8.999999999999999e-08)"
1970/01/01/01:00:13.632000,157,13,632000000,base_link,0.000963958517631,-0.00180436206713,-0.705256805363,-0.70894900199,"(1.0, 0.0, 0.0, 0.0, 1.0, 0.0, 0.0, 0.0, 1.0)",-0.00989904440939,0.0108772646636,-0.00197139987722,"(1.2184696791468346e-07, 0.0, 0.0, 0.0, 1.2184696791468346e-07, 0.0, 0.0, 0.0, 1.2184696791468346e-07)",0.0,0.0,0.0,"(-1.0, 0.0, 0.0, 0.0, 8.999999999999999e-08, 0.0, 0.0, 0.0, 8.999999999999999e-08)"
1970/01/01/01:00:13.652000,158,13,651000000,base_link,0.000989955508741,-0.00186001010703,-0.705239697859,-0.708965940907,"(1.0, 0.0, 0.0, 0.0, 1.0, 0.0, 0.0, 0.0, 1.0)",-0.00190712045878,0.00110258173663,-0.00447425665334,"(1.2184696791468346e-07, 0.0, 0.0, 0.0, 1.2184696791468346e-07, 0.0, 0.0, 0.0, 1.2184696791468346e-07)",0.0,0.0,0.0,"(-1.0, 0.0, 0.0, 0.0, 8.999999999999999e-08, 0.0, 0.0, 0.0, 8.999999999999999e-08)"
1970/01/01/01:00:13.672000,159,13,672000000,base_link,0.00104475328536,-0.00180866771344,-0.705187812948,-0.709017572937,"(1.0, 0.0, 0.0, 0.0, 1.0, 0.0, 0.0, 0.0, 1.0)",-0.0092194294557,-0.000565401220229,-0.0116327293217,"(1.2184696791468346e-07, 0.0, 0.0, 0.0, 1.2184696791468346e-07, 0.0, 0.0, 0.0, 1.2184696791468346e-07)",0.0,0.0,0.0,"(-1.0, 0.0, 0.0, 0.0, 8.999999999999999e-08, 0.0, 0.0, 0.0, 8.999999999999999e-08)"
1970/01/01/01:00:13.691000,160,13,691000000,base_link,0.00101276353923,-0.00181985469711,-0.705256165093,-0.708949557966,"(1.0, 0.0, 0.0, 0.0, 1.0, 0.0, 0.0, 0.0, 1.0)",0.00645469268784,-0.00338137079962,0.0104023525491,"(1.2184696791468346e-07, 0.0, 0.0, 0.0, 1.2184696791468346e-07, 0.0, 0.0, 0.0, 1.2184696791468346e-07)",0.0,0.0,0.0,"(-1.0, 0.0, 0.0, 0.0, 8.999999999999999e-08, 0.0, 0.0, 0.0, 8.999999999999999e-08)"
1970/01/01/01:00:13.711000,161,13,711000000,base_link,0.00101145863329,-0.00176235355412,-0.705301979047,-0.708904165481,"(1.0, 0.0, 0.0, 0.0, 1.0, 0.0, 0.0, 0.0, 1.0)",-0.00678430357948,-0.00997312087566,0.00667832791805,"(1.2184696791468346e-07, 0.0, 0.0, 0.0, 1.2184696791468346e-07, 0.0, 0.0, 0.0, 1.2184696791468346e-07)",0.0,0.0,0.0,"(-1.0, 0.0, 0.0, 0.0, 8.999999999999999e-08, 0.0, 0.0, 0.0, 8.999999999999999e-08)"
1970/01/01/01:00:13.732000,162,13,732000000,base_link,0.00105823054278,-0.0017241858579,-0.705352424215,-0.708853973194,"(1.0, 0.0, 0.0, 0.0, 1.0, 0.0, 0.0, 0.0, 1.0)",-0.00940045714378,-0.00332627701573,0.00494942627847,"(1.2184696791468346e-07, 0.0, 0.0, 0.0, 1.2184696791468346e-07, 0.0, 0.0, 0.0, 1.2184696791468346e-07)",0.0,0.0,0.0,"(-1.0, 0.0, 0.0, 0.0, 8.999999999999999e-08, 0.0, 0.0, 0.0, 8.999999999999999e-08)"
1970/01/01/01:00:13.752000,163,13,752000000,base_link,0.00105178347436,-0.00170995084214,-0.705412911693,-0.708793738597,"(1.0, 0.0, 0.0, 0.0, 1.0, 0.0, 0.0, 0.0, 1.0)",0.00327699258924,-0.00473216595128,0.0068584070541,"(1.2184696791468346e-07, 0.0, 0.0, 0.0, 1.2184696791468346e-07, 0.0, 0.0, 0.0, 1.2184696791468346e-07)",0.0,0.0,0.0,"(-1.0, 0.0, 0.0, 0.0, 8.999999999999999e-08, 0.0, 0.0, 0.0, 8.999999999999999e-08)"
1970/01/01/01:00:13.771000,164,13,772000000,base_link,0.00108977120271,-0.00174582859388,-0.705469550965,-0.708737352206,"(1.0, 0.0, 0.0, 0.0, 1.0, 0.0, 0.0, 0.0, 1.0)",-0.00168572645634,0.005660190247,0.00435349904001,"(1.2184696791468346e-07, 0.0, 0.0, 0.0, 1.2184696791468346e-07, 0.0, 0.0, 0.0, 1.2184696791468346e-07)",0.0,0.0,0.0,"(-1.0, 0.0, 0.0, 0.0, 8.999999999999999e-08, 0.0, 0.0, 0.0, 8.999999999999999e-08)"
1970/01/01/01:00:13.792000,165,13,792000000,base_link,0.00106454061335,-0.0017343147046,-0.70544793523,-0.708758883648,"(1.0, 0.0, 0.0, 0.0, 1.0, 0.0, 0.0, 0.0, 1.0)",0.00257795164362,0.000248359632678,0.00809759832919,"(1.2184696791468346e-07, 0.0, 0.0, 0.0, 1.2184696791468346e-07, 0.0, 0.0, 0.0, 1.2184696791468346e-07)",0.0,0.0,0.0,"(-1.0, 0.0, 0.0, 0.0, 8.999999999999999e-08, 0.0, 0.0, 0.0, 8.999999999999999e-08)"
1970/01/01/01:00:13.812000,166,13,812000000,base_link,0.00110429344678,-0.00185960794213,-0.705522956949,-0.708683861928,"(1.0, 0.0, 0.0, 0.0, 1.0, 0.0, 0.0, 0.0, 1.0)",0.0041990019381,0.00948771648109,0.00305936136283,"(1.2184696791468346e-07, 0.0, 0.0, 0.0, 1.2184696791468346e-07, 0.0, 0.0, 0.0, 1.2184696791468346e-07)",0.0,0.0,0.0,"(-1.0, 0.0, 0.0, 0.0, 8.999999999999999e-08, 0.0, 0.0, 0.0, 8.999999999999999e-08)"
1970/01/01/01:00:13.832000,167,13,832000000,base_link,0.00111217408427,-0.00190999795688,-0.705533564949,-0.708673169635,"(1.0, 0.0, 0.0, 0.0, 1.0, 0.0, 0.0, 0.0, 1.0)",0.00288296258077,0.00221122126095,0.000627683242783,"(1.2184696791468346e-07, 0.0, 0.0, 0.0, 1.2184696791468346e-07, 0.0, 0.0, 0.0, 1.2184696791468346e-07)",0.0,0.0,0.0,"(-1.0, 0.0, 0.0, 0.0, 8.999999999999999e-08, 0.0, 0.0, 0.0, 8.999999999999999e-08)"
1970/01/01/01:00:13.852000,168,13,851000000,base_link,0.00115027639937,-0.00195735825531,-0.705600263325,-0.708606555553,"(1.0, 0.0, 0.0, 0.0, 1.0, 0.0, 0.0, 0.0, 1.0)",-0.0050137033686,-0.00209036027081,0.00278093689121,"(1.2184696791468346e-07, 0.0, 0.0, 0.0, 1.2184696791468346e-07, 0.0, 0.0, 0.0, 1.2184696791468346e-07)",0.0,0.0,0.0,"(-1.0, 0.0, 0.0, 0.0, 8.999999999999999e-08, 0.0, 0.0, 0.0, 8.999999999999999e-08)"
1970/01/01/01:00:13.871000,169,13,871000000,base_link,0.0011635360284,-0.00196548156645,-0.705655094893,-0.708551892572,"(1.0, 0.0, 0.0, 0.0, 1.0, 0.0, 0.0, 0.0, 1.0)",-0.00248549296521,-0.000354886986315,0.00846103206277,"(1.2184696791468346e-07, 0.0, 0.0, 0.0, 1.2184696791468346e-07, 0.0, 0.0, 0.0, 1.2184696791468346e-07)",0.0,0.0,0.0,"(-1.0, 0.0, 0.0, 0.0, 8.999999999999999e-08, 0.0, 0.0, 0.0, 8.999999999999999e-08)"
1970/01/01/01:00:13.892000,170,13,892000000,base_link,0.00120525819802,-0.00210930101923,-0.70574889114,-0.708458012031,"(1.0, 0.0, 0.0, 0.0, 1.0, 0.0, 0.0, 0.0, 1.0)",0.00525368051603,0.00709947990254,0.00923924893141,"(1.2184696791468346e-07, 0.0, 0.0, 0.0, 1.2184696791468346e-07, 0.0, 0.0, 0.0, 1.2184696791468346e-07)",0.0,0.0,0.0,"(-1.0, 0.0, 0.0, 0.0, 8.999999999999999e-08, 0.0, 0.0, 0.0, 8.999999999999999e-08)"
1970/01/01/01:00:13.911000,171,13,911000000,base_link,0.00126586800036,-0.00208783378536,-0.705743889742,-0.708462929136,"(1.0, 0.0, 0.0, 0.0, 1.0, 0.0, 0.0, 0.0, 1.0)",-0.00845398567617,-0.00252848584205,0.00109876785427,"(1.2184696791468346e-07, 0.0, 0.0, 0.0, 1.2184696791468346e-07, 0.0, 0.0, 0.0, 1.2184696791468346e-07)",0.0,0.0,0.0,"(-1.0, 0.0, 0.0, 0.0, 8.999999999999999e-08, 0.0, 0.0, 0.0, 8.999999999999999e-08)"
1970/01/01/01:00:13.932000,172,13,932000000,base_link,0.00131000867469,-0.00213723277295,-0.705763053304,-0.708443512692,"(1.0, 0.0, 0.0, 0.0, 1.0, 0.0, 0.0, 0.0, 1.0)",0.00247771758586,0.00572523986921,-0.00162681657821,"(1.2184696791468346e-07, 0.0, 0.0, 0.0, 1.2184696791468346e-07, 0.0, 0.0, 0.0, 1.2184696791468346e-07)",0.0,0.0,0.0,"(-1.0, 0.0, 0.0, 0.0, 8.999999999999999e-08, 0.0, 0.0, 0.0, 8.999999999999999e-08)"
1970/01/01/01:00:13.951000,173,13,951000000,base_link,0.0013896022984,-0.00218602404743,-0.705748306023,-0.708457922798,"(1.0, 0.0, 0.0, 0.0, 1.0, 0.0, 0.0, 0.0, 1.0)",-0.00079390296014,0.00791033636779,-0.000124800018966,"(1.2184696791468346e-07, 0.0, 0.0, 0.0, 1.2184696791468346e-07, 0.0, 0.0, 0.0, 1.2184696791468346e-07)",0.0,0.0,0.0,"(-1.0, 0.0, 0.0, 0.0, 8.999999999999999e-08, 0.0, 0.0, 0.0, 8.999999999999999e-08)"
1970/01/01/01:00:13.973000,174,13,971000000,base_link,0.00134642132921,-0.00218297124088,-0.705793982094,-0.708412499608,"(1.0, 0.0, 0.0, 0.0, 1.0, 0.0, 0.0, 0.0, 1.0)",0.00502512976527,-0.00150627514813,0.00437537394464,"(1.2184696791468346e-07, 0.0, 0.0, 0.0, 1.2184696791468346e-07, 0.0, 0.0, 0.0, 1.2184696791468346e-07)",0.0,0.0,0.0,"(-1.0, 0.0, 0.0, 0.0, 8.999999999999999e-08, 0.0, 0.0, 0.0, 8.999999999999999e-08)"
1970/01/01/01:00:13.990000,175,13,990000000,base_link,0.00135873956887,-0.00221807841324,-0.705757984981,-0.70844824384,"(1.0, 0.0, 0.0, 0.0, 1.0, 0.0, 0.0, 0.0, 1.0)",0.000220952439122,0.00385717116296,-0.0114292269573,"(1.2184696791468346e-07, 0.0, 0.0, 0.0, 1.2184696791468346e-07, 0.0, 0.0, 0.0, 1.2184696791468346e-07)",0.0,0.0,0.0,"(-1.0, 0.0, 0.0, 0.0, 8.999999999999999e-08, 0.0, 0.0, 0.0, 8.999999999999999e-08)"
1970/01/01/01:00:14.014000,176,14,14000000,base_link,0.00135499380887,-0.00227330095107,-0.705804243041,-0.708401985781,"(1.0, 0.0, 0.0, 0.0, 1.0, 0.0, 0.0, 0.0, 1.0)",0.00245415349491,0.00258807884529,0.00331103475764,"(1.2184696791468346e-07, 0.0, 0.0, 0.0, 1.2184696791468346e-07, 0.0, 0.0, 0.0, 1.2184696791468346e-07)",0.0,0.0,0.0,"(-1.0, 0.0, 0.0, 0.0, 8.999999999999999e-08, 0.0, 0.0, 0.0, 8.999999999999999e-08)"
1970/01/01/01:00:14.032000,177,14,32000000,base_link,0.00141532871003,-0.00234825940926,-0.705858592719,-0.708347467515,"(1.0, 0.0, 0.0, 0.0, 1.0, 0.0, 0.0, 0.0, 1.0)",0.00311754038557,0.00967521965504,0.00665094982833,"(1.2184696791468346e-07, 0.0, 0.0, 0.0, 1.2184696791468346e-07, 0.0, 0.0, 0.0, 1.2184696791468346e-07)",0.0,0.0,0.0,"(-1.0, 0.0, 0.0, 0.0, 8.999999999999999e-08, 0.0, 0.0, 0.0, 8.999999999999999e-08)"
1970/01/01/01:00:14.052000,178,14,51000000,base_link,0.00143879450301,-0.00231327962411,-0.705837759334,-0.708368385194,"(1.0, 0.0, 0.0, 0.0, 1.0, 0.0, 0.0, 0.0, 1.0)",-0.00366016617045,-0.00362036027946,-0.00723786000162,"(1.2184696791468346e-07, 0.0, 0.0, 0.0, 1.2184696791468346e-07, 0.0, 0.0, 0.0, 1.2184696791468346e-07)",0.0,0.0,0.0,"(-1.0, 0.0, 0.0, 0.0, 8.999999999999999e-08, 0.0, 0.0, 0.0, 8.999999999999999e-08)"
1970/01/01/01:00:14.072000,179,14,72000000,base_link,0.00146620176718,-0.00232980880314,-0.705817588363,-0.708388387577,"(1.0, 0.0, 0.0, 0.0, 1.0, 0.0, 0.0, 0.0, 1.0)",-0.000435042224126,0.0002277114545,-0.0036256366875,"(1.2184696791468346e-07, 0.0, 0.0, 0.0, 1.2184696791468346e-07, 0.0, 0.0, 0.0, 1.2184696791468346e-07)",0.0,0.0,0.0,"(-1.0, 0.0, 0.0, 0.0, 8.999999999999999e-08, 0.0, 0.0, 0.0, 8.999999999999999e-08)"
1970/01/01/01:00:14.092000,180,14,91000000,base_link,0.00145810714389,-0.00240197157526,-0.70579974724,-0.70840597582,"(1.0, 0.0, 0.0, 0.0, 1.0, 0.0, 0.0, 0.0, 1.0)",0.0091831702739,0.0016916875029,-0.00403997534886,"(1.2184696791468346e-07, 0.0, 0.0, 0.0, 1.2184696791468346e-07, 0.0, 0.0, 0.0, 1.2184696791468346e-07)",0.0,0.0,0.0,"(-1.0, 0.0, 0.0, 0.0, 8.999999999999999e-08, 0.0, 0.0, 0.0, 8.999999999999999e-08)"
1970/01/01/01:00:14.115000,181,14,111000000,base_link,0.00147845398775,-0.00243918152139,-0.705754128215,-0.708451089082,"(1.0, 0.0, 0.0, 0.0, 1.0, 0.0, 0.0, 0.0, 1.0)",0.000127631588839,0.00468403380364,-0.00322667555884,"(1.2184696791468346e-07, 0.0, 0.0, 0.0, 1.2184696791468346e-07, 0.0, 0.0, 0.0, 1.2184696791468346e-07)",0.0,0.0,0.0,"(-1.0, 0.0, 0.0, 0.0, 8.999999999999999e-08, 0.0, 0.0, 0.0, 8.999999999999999e-08)"
1970/01/01/01:00:14.131000,182,14,131000000,base_link,0.0015108309169,-0.00243809961508,-0.705733423988,-0.708471709016,"(1.0, 0.0, 0.0, 0.0, 1.0, 0.0, 0.0, 0.0, 1.0)",-0.00301874801517,-0.00376566825435,-0.00560445711017,"(1.2184696791468346e-07, 0.0, 0.0, 0.0, 1.2184696791468346e-07, 0.0, 0.0, 0.0, 1.2184696791468346e-07)",0.0,0.0,0.0,"(-1.0, 0.0, 0.0, 0.0, 8.999999999999999e-08, 0.0, 0.0, 0.0, 8.999999999999999e-08)"
1970/01/01/01:00:14.152000,183,14,152000000,base_link,0.001575701708,-0.00249262195547,-0.705739509186,-0.708465286643,"(1.0, 0.0, 0.0, 0.0, 1.0, 0.0, 0.0, 0.0, 1.0)",0.00162706279662,0.00352066196501,-0.000640589045361,"(1.2184696791468346e-07, 0.0, 0.0, 0.0, 1.2184696791468346e-07, 0.0, 0.0, 0.0, 1.2184696791468346e-07)",0.0,0.0,0.0,"(-1.0, 0.0, 0.0, 0.0, 8.999999999999999e-08, 0.0, 0.0, 0.0, 8.999999999999999e-08)"
1970/01/01/01:00:14.171000,184,14,170000000,base_link,0.00151284861495,-0.00251961466587,-0.705687551753,-0.708517159782,"(1.0, 0.0, 0.0, 0.0, 1.0, 0.0, 0.0, 0.0, 1.0)",0.0106795625761,-0.00184802548029,-0.0112826265395,"(1.2184696791468346e-07, 0.0, 0.0, 0.0, 1.2184696791468346e-07, 0.0, 0.0, 0.0, 1.2184696791468346e-07)",0.0,0.0,0.0,"(-1.0, 0.0, 0.0, 0.0, 8.999999999999999e-08, 0.0, 0.0, 0.0, 8.999999999999999e-08)"
1970/01/01/01:00:14.192000,185,14,192000000,base_link,0.00151425732397,-0.0025541634748,-0.705688542862,-0.708515915792,"(1.0, 0.0, 0.0, 0.0, 1.0, 0.0, 0.0, 0.0, 1.0)",0.000579754589126,-0.000293767778203,0.0021987343207,"(1.2184696791468346e-07, 0.0, 0.0, 0.0, 1.2184696791468346e-07, 0.0, 0.0, 0.0, 1.2184696791468346e-07)",0.0,0.0,0.0,"(-1.0, 0.0, 0.0, 0.0, 8.999999999999999e-08, 0.0, 0.0, 0.0, 8.999999999999999e-08)"
1970/01/01/01:00:14.212000,186,14,212000000,base_link,0.00154366298262,-0.00257590993155,-0.7056907722,-0.708513686454,"(1.0, 0.0, 0.0, 0.0, 1.0, 0.0, 0.0, 0.0, 1.0)",-0.00118308886886,7.7066681115e-05,0.000787956290878,"(1.2184696791468346e-07, 0.0, 0.0, 0.0, 1.2184696791468346e-07, 0.0, 0.0, 0.0, 1.2184696791468346e-07)",0.0,0.0,0.0,"(-1.0, 0.0, 0.0, 0.0, 8.999999999999999e-08, 0.0, 0.0, 0.0, 8.999999999999999e-08)"
1970/01/01/01:00:14.232000,187,14,232000000,base_link,0.00149286660474,-0.00257862169435,-0.705698431073,-0.708506111875,"(1.0, 0.0, 0.0, 0.0, 1.0, 0.0, 0.0, 0.0, 1.0)",0.00504256691784,-0.00389345595613,-0.00602035038173,"(1.2184696791468346e-07, 0.0, 0.0, 0.0, 1.2184696791468346e-07, 0.0, 0.0, 0.0, 1.2184696791468346e-07)",0.0,0.0,0.0,"(-1.0, 0.0, 0.0, 0.0, 8.999999999999999e-08, 0.0, 0.0, 0.0, 8.999999999999999e-08)"
1970/01/01/01:00:14.251000,188,14,251000000,base_link,0.00151011581988,-0.00259352064646,-0.705693606576,-0.708510852078,"(1.0, 0.0, 0.0, 0.0, 1.0, 0.0, 0.0, 0.0, 1.0)",0.00148962927051,0.00207812711596,0.00119172688574,"(1.2184696791468346e-07, 0.0, 0.0, 0.0, 1.2184696791468346e-07, 0.0, 0.0, 0.0, 1.2184696791468346e-07)",0.0,0.0,0.0,"(-1.0, 0.0, 0.0, 0.0, 8.999999999999999e-08, 0.0, 0.0, 0.0, 8.999999999999999e-08)"
1970/01/01/01:00:14.272000,189,14,272000000,base_link,0.00146709755235,-0.00264718428596,-0.705757562031,-0.708446980917,"(1.0, 0.0, 0.0, 0.0, 1.0, 0.0, 0.0, 0.0, 1.0)",0.00717753404751,-0.00150126847439,0.0095575992018,"(1.2184696791468346e-07, 0.0, 0.0, 0.0, 1.2184696791468346e-07, 0.0, 0.0, 0.0, 1.2184696791468346e-07)",0.0,0.0,0.0,"(-1.0, 0.0, 0.0, 0.0, 8.999999999999999e-08, 0.0, 0.0, 0.0, 8.999999999999999e-08)"
1970/01/01/01:00:14.292000,190,14,292000000,base_link,0.00160843676188,-0.00261063169073,-0.705794975591,-0.708409567357,"(1.0, 0.0, 0.0, 0.0, 1.0, 0.0, 0.0, 0.0, 1.0)",-0.015969125554,0.00293564423919,-0.00100556376856,"(1.2184696791468346e-07, 0.0, 0.0, 0.0, 1.2184696791468346e-07, 0.0, 0.0, 0.0, 1.2184696791468346e-07)",0.0,0.0,0.0,"(-1.0, 0.0, 0.0, 0.0, 8.999999999999999e-08, 0.0, 0.0, 0.0, 8.999999999999999e-08)"
1970/01/01/01:00:14.313000,191,14,313000000,base_link,0.00167846469734,-0.00273312792509,-0.705848675286,-0.708355446193,"(1.0, 0.0, 0.0, 0.0, 1.0, 0.0, 0.0, 0.0, 1.0)",0.00358602288179,0.0123013537377,0.00624356931075,"(1.2184696791468346e-07, 0.0, 0.0, 0.0, 1.2184696791468346e-07, 0.0, 0.0, 0.0, 1.2184696791468346e-07)",0.0,0.0,0.0,"(-1.0, 0.0, 0.0, 0.0, 8.999999999999999e-08, 0.0, 0.0, 0.0, 8.999999999999999e-08)"
1970/01/01/01:00:14.332000,192,14,332000000,base_link,0.00163081698539,-0.00271553659608,-0.705953866411,-0.708250845124,"(1.0, 0.0, 0.0, 0.0, 1.0, 0.0, 0.0, 0.0, 1.0)",0.000457673886558,-0.00936688575894,0.0128116169944,"(1.2184696791468346e-07, 0.0, 0.0, 0.0, 1.2184696791468346e-07, 0.0, 0.0, 0.0, 1.2184696791468346e-07)",0.0,0.0,0.0,"(-1.0, 0.0, 0.0, 0.0, 8.999999999999999e-08, 0.0, 0.0, 0.0, 8.999999999999999e-08)"
1970/01/01/01:00:14.352000,193,14,352000000,base_link,0.00169425906418,-0.00280175106164,-0.706104416106,-0.708100211135,"(1.0, 0.0, 0.0, 0.0, 1.0, 0.0, 0.0, 0.0, 1.0)",0.00288830976933,0.00918907020241,0.0205208994448,"(1.2184696791468346e-07, 0.0, 0.0, 0.0, 1.2184696791468346e-07, 0.0, 0.0, 0.0, 1.2184696791468346e-07)",0.0,0.0,0.0,"(-1.0, 0.0, 0.0, 0.0, 8.999999999999999e-08, 0.0, 0.0, 0.0, 8.999999999999999e-08)"
1970/01/01/01:00:14.372000,194,14,372000000,base_link,0.00167225309974,-0.00280138857404,-0.70615105464,-0.708053825482,"(1.0, 0.0, 0.0, 0.0, 1.0, 0.0, 0.0, 0.0, 1.0)",-0.00235618953593,-0.0061528426595,0.00404004612938,"(1.2184696791468346e-07, 0.0, 0.0, 0.0, 1.2184696791468346e-07, 0.0, 0.0, 0.0, 1.2184696791468346e-07)",0.0,0.0,0.0,"(-1.0, 0.0, 0.0, 0.0, 8.999999999999999e-08, 0.0, 0.0, 0.0, 8.999999999999999e-08)"
1970/01/01/01:00:14.392000,195,14,392000000,base_link,0.00163983727531,-0.00272781528191,-0.706231491736,-0.707973894149,"(1.0, 0.0, 0.0, 0.0, 1.0, 0.0, 0.0, 0.0, 1.0)",-0.00124472868629,-0.00702349375933,0.00714392680675,"(1.2184696791468346e-07, 0.0, 0.0, 0.0, 1.2184696791468346e-07, 0.0, 0.0, 0.0, 1.2184696791468346e-07)",0.0,0.0,0.0,"(-1.0, 0.0, 0.0, 0.0, 8.999999999999999e-08, 0.0, 0.0, 0.0, 8.999999999999999e-08)"
1970/01/01/01:00:14.413000,196,14,413000000,base_link,0.00166800396478,-0.00269613789167,-0.706246324216,-0.707959145962,"(1.0, 0.0, 0.0, 0.0, 1.0, 0.0, 0.0, 0.0, 1.0)",-0.00518574938178,-0.00403950735927,-0.000658274453599,"(1.2184696791468346e-07, 0.0, 0.0, 0.0, 1.2184696791468346e-07, 0.0, 0.0, 0.0, 1.2184696791468346e-07)",0.0,0.0,0.0,"(-1.0, 0.0, 0.0, 0.0, 8.999999999999999e-08, 0.0, 0.0, 0.0, 8.999999999999999e-08)"
1970/01/01/01:00:14.432000,197,14,432000000,base_link,0.00164485266797,-0.00269466357515,-0.706320213898,-0.707885509162,"(1.0, 0.0, 0.0, 0.0, 1.0, 0.0, 0.0, 0.0, 1.0)",0.00384943909012,-0.00264211255126,0.0101579120383,"(1.2184696791468346e-07, 0.0, 0.0, 0.0, 1.2184696791468346e-07, 0.0, 0.0, 0.0, 1.2184696791468346e-07)",0.0,0.0,0.0,"(-1.0, 0.0, 0.0, 0.0, 8.999999999999999e-08, 0.0, 0.0, 0.0, 8.999999999999999e-08)"
1970/01/01/01:00:14.452000,198,14,452000000,base_link,0.00163717901925,-0.0027517810748,-0.70633557947,-0.707869975002,"(1.0, 0.0, 0.0, 0.0, 1.0, 0.0, 0.0, 0.0, 1.0)",0.00759041914716,-0.000859161897097,-0.00258965301327,"(1.2184696791468346e-07, 0.0, 0.0, 0.0, 1.2184696791468346e-07, 0.0, 0.0, 0.0, 1.2184696791468346e-07)",0.0,0.0,0.0,"(-1.0, 0.0, 0.0, 0.0, 8.999999999999999e-08, 0.0, 0.0, 0.0, 8.999999999999999e-08)"
1970/01/01/01:00:14.472000,199,14,472000000,base_link,0.00162266416322,-0.00281588992991,-0.706329183932,-0.707876201952,"(1.0, 0.0, 0.0, 0.0, 1.0, 0.0, 0.0, 0.0, 1.0)",0.00377225596458,0.00204702862538,-0.00339142791927,"(1.2184696791468346e-07, 0.0, 0.0, 0.0, 1.2184696791468346e-07, 0.0, 0.0, 0.0, 1.2184696791468346e-07)",0.0,0.0,0.0,"(-1.0, 0.0, 0.0, 0.0, 8.999999999999999e-08, 0.0, 0.0, 0.0, 8.999999999999999e-08)"
1970/01/01/01:00:14.492000,200,14,491000000,base_link,0.00169355322794,-0.00277133309661,-0.706315411626,-0.707889889964,"(1.0, 0.0, 0.0, 0.0, 1.0, 0.0, 0.0, 0.0, 1.0)",-0.0112033849582,0.000598893733695,-0.00516679836437,"(1.2184696791468346e-07, 0.0, 0.0, 0.0, 1.2184696791468346e-07, 0.0, 0.0, 0.0, 1.2184696791468346e-07)",0.0,0.0,0.0,"(-1.0, 0.0, 0.0, 0.0, 8.999999999999999e-08, 0.0, 0.0, 0.0, 8.999999999999999e-08)"
1970/01/01/01:00:14.512000,201,14,512000000,base_link,0.00169574790983,-0.00286842025547,-0.706266803468,-0.707937908067,"(1.0, 0.0, 0.0, 0.0, 1.0, 0.0, 0.0, 0.0, 1.0)",0.00738236028701,0.00538650667295,-0.00680578919128,"(1.2184696791468346e-07, 0.0, 0.0, 0.0, 1.2184696791468346e-07, 0.0, 0.0, 0.0, 1.2184696791468346e-07)",0.0,0.0,0.0,"(-1.0, 0.0, 0.0, 0.0, 8.999999999999999e-08, 0.0, 0.0, 0.0, 8.999999999999999e-08)"
1970/01/01/01:00:14.532000,202,14,532000000,base_link,0.00168007669081,-0.00289427784094,-0.706300854253,-0.707903857282,"(1.0, 0.0, 0.0, 0.0, 1.0, 0.0, 0.0, 0.0, 1.0)",-0.00283940020017,0.000270038290182,0.00112663942855,"(1.2184696791468346e-07, 0.0, 0.0, 0.0, 1.2184696791468346e-07, 0.0, 0.0, 0.0, 1.2184696791468346e-07)",0.0,0.0,0.0,"(-1.0, 0.0, 0.0, 0.0, 8.999999999999999e-08, 0.0, 0.0, 0.0, 8.999999999999999e-08)"
1970/01/01/01:00:14.552000,203,14,552000000,base_link,0.00179285564821,-0.00290964703498,-0.706210475275,-0.707993814791,"(1.0, 0.0, 0.0, 0.0, 1.0, 0.0, 0.0, 0.0, 1.0)",-0.00704281451181,0.0108631942421,-0.0148016987368,"(1.2184696791468346e-07, 0.0, 0.0, 0.0, 1.2184696791468346e-07, 0.0, 0.0, 0.0, 1.2184696791468346e-07)",0.0,0.0,0.0,"(-1.0, 0.0, 0.0, 0.0, 8.999999999999999e-08, 0.0, 0.0, 0.0, 8.999999999999999e-08)"
1970/01/01/01:00:14.573000,204,14,573000000,base_link,0.0017265994441,-0.00302309651417,-0.706205553314,-0.707998315284,"(1.0, 0.0, 0.0, 0.0, 1.0, 0.0, 0.0, 0.0, 1.0)",0.00903689488769,0.000911657465622,0.00843565259129,"(1.2184696791468346e-07, 0.0, 0.0, 0.0, 1.2184696791468346e-07, 0.0, 0.0, 0.0, 1.2184696791468346e-07)",0.0,0.0,0.0,"(-1.0, 0.0, 0.0, 0.0, 8.999999999999999e-08, 0.0, 0.0, 0.0, 8.999999999999999e-08)"
1970/01/01/01:00:14.593000,205,14,591000000,base_link,0.00172206203128,-0.00304360527767,-0.706224094552,-0.707979689752,"(1.0, 0.0, 0.0, 0.0, 1.0, 0.0, 0.0, 0.0, 1.0)",0.00251316744834,-0.000548634212464,0.0014280549949,"(1.2184696791468346e-07, 0.0, 0.0, 0.0, 1.2184696791468346e-07, 0.0, 0.0, 0.0, 1.2184696791468346e-07)",0.0,0.0,0.0,"(-1.0, 0.0, 0.0, 0.0, 8.999999999999999e-08, 0.0, 0.0, 0.0, 8.999999999999999e-08)"
1970/01/01/01:00:14.615000,206,14,615000000,base_link,0.00173266307498,-0.00308240956005,-0.706198576611,-0.7080051234,"(1.0, 0.0, 0.0, 0.0, 1.0, 0.0, 0.0, 0.0, 1.0)",0.00374526972882,0.00468476256356,-0.0028153276071,"(1.2184696791468346e-07, 0.0, 0.0, 0.0, 1.2184696791468346e-07, 0.0, 0.0, 0.0, 1.2184696791468346e-07)",0.0,0.0,0.0,"(-1.0, 0.0, 0.0, 0.0, 8.999999999999999e-08, 0.0, 0.0, 0.0, 8.999999999999999e-08)"
1970/01/01/01:00:14.632000,207,14,632000000,base_link,0.00180679880528,-0.00315442296604,-0.706229368588,-0.707973909954,"(1.0, 0.0, 0.0, 0.0, 1.0, 0.0, 0.0, 0.0, 1.0)",-0.0021977936849,0.0112452730536,0.00409139879048,"(1.2184696791468346e-07, 0.0, 0.0, 0.0, 1.2184696791468346e-07, 0.0, 0.0, 0.0, 1.2184696791468346e-07)",0.0,0.0,0.0,"(-1.0, 0.0, 0.0, 0.0, 8.999999999999999e-08, 0.0, 0.0, 0.0, 8.999999999999999e-08)"
1970/01/01/01:00:14.653000,208,14,652000000,base_link,0.00183266655703,-0.00322346497805,-0.706281832771,-0.707921108596,"(1.0, 0.0, 0.0, 0.0, 1.0, 0.0, 0.0, 0.0, 1.0)",0.00436135847121,0.00172911502887,0.00339600117877,"(1.2184696791468346e-07, 0.0, 0.0, 0.0, 1.2184696791468346e-07, 0.0, 0.0, 0.0, 1.2184696791468346e-07)",0.0,0.0,0.0,"(-1.0, 0.0, 0.0, 0.0, 8.999999999999999e-08, 0.0, 0.0, 0.0, 8.999999999999999e-08)"
1970/01/01/01:00:14.672000,209,14,672000000,base_link,0.00176330181705,-0.00330433021005,-0.706275146486,-0.707927542,"(1.0, 0.0, 0.0, 0.0, 1.0, 0.0, 0.0, 0.0, 1.0)",0.0142485685647,0.000420797005063,-0.00294193159789,"(1.2184696791468346e-07, 0.0, 0.0, 0.0, 1.2184696791468346e-07, 0.0, 0.0, 0.0, 1.2184696791468346e-07)",0.0,0.0,0.0,"(-1.0, 0.0, 0.0, 0.0, 8.999999999999999e-08, 0.0, 0.0, 0.0, 8.999999999999999e-08)"
1970/01/01/01:00:14.692000,210,14,692000000,base_link,0.00175134166097,-0.00326312672654,-0.706323041523,-0.707879984138,"(1.0, 0.0, 0.0, 0.0, 1.0, 0.0, 0.0, 0.0, 1.0)",-0.00545444060117,-0.00547176925465,0.00297261122614,"(1.2184696791468346e-07, 0.0, 0.0, 0.0, 1.2184696791468346e-07, 0.0, 0.0, 0.0, 1.2184696791468346e-07)",0.0,0.0,0.0,"(-1.0, 0.0, 0.0, 0.0, 8.999999999999999e-08, 0.0, 0.0, 0.0, 8.999999999999999e-08)"
1970/01/01/01:00:14.714000,211,14,711000000,base_link,0.00174426485937,-0.003276119892,-0.706335842393,-0.707867267561,"(1.0, 0.0, 0.0, 0.0, 1.0, 0.0, 0.0, 0.0, 1.0)",0.00174940610304,0.00214345892891,-0.00270803272724,"(1.2184696791468346e-07, 0.0, 0.0, 0.0, 1.2184696791468346e-07, 0.0, 0.0, 0.0, 1.2184696791468346e-07)",0.0,0.0,0.0,"(-1.0, 0.0, 0.0, 0.0, 8.999999999999999e-08, 0.0, 0.0, 0.0, 8.999999999999999e-08)"
1970/01/01/01:00:14.732000,212,14,732000000,base_link,0.00175298942165,-0.00339421684326,-0.706386604897,-0.707815999295,"(1.0, 0.0, 0.0, 0.0, 1.0, 0.0, 0.0, 0.0, 1.0)",0.00634417310357,-0.000962669961154,0.00659744441509,"(1.2184696791468346e-07, 0.0, 0.0, 0.0, 1.2184696791468346e-07, 0.0, 0.0, 0.0, 1.2184696791468346e-07)",0.0,0.0,0.0,"(-1.0, 0.0, 0.0, 0.0, 8.999999999999999e-08, 0.0, 0.0, 0.0, 8.999999999999999e-08)"
1970/01/01/01:00:14.752000,213,14,752000000,base_link,0.00163348721873,-0.00347298543418,-0.706418387573,-0.707784132326,"(1.0, 0.0, 0.0, 0.0, 1.0, 0.0, 0.0, 0.0, 1.0)",0.0107795344666,-9.91726992652e-05,0.00619409559295,"(1.2184696791468346e-07, 0.0, 0.0, 0.0, 1.2184696791468346e-07, 0.0, 0.0, 0.0, 1.2184696791468346e-07)",0.0,0.0,0.0,"(-1.0, 0.0, 0.0, 0.0, 8.999999999999999e-08, 0.0, 0.0, 0.0, 8.999999999999999e-08)"
1970/01/01/01:00:14.773000,214,14,772000000,base_link,0.0016038509872,-0.00349300987935,-0.706429693177,-0.707772826722,"(1.0, 0.0, 0.0, 0.0, 1.0, 0.0, 0.0, 0.0, 1.0)",0.000442577409558,-0.0046645514667,-0.00966060627252,"(1.2184696791468346e-07, 0.0, 0.0, 0.0, 1.2184696791468346e-07, 0.0, 0.0, 0.0, 1.2184696791468346e-07)",0.0,0.0,0.0,"(-1.0, 0.0, 0.0, 0.0, 8.999999999999999e-08, 0.0, 0.0, 0.0, 8.999999999999999e-08)"
1970/01/01/01:00:14.792000,215,14,792000000,base_link,0.0016628296571,-0.00346551161255,-0.706409921983,-0.707792513622,"(1.0, 0.0, 0.0, 0.0, 1.0, 0.0, 0.0, 0.0, 1.0)",-0.00802098587155,0.00780191738158,-0.000498851411976,"(1.2184696791468346e-07, 0.0, 0.0, 0.0, 1.2184696791468346e-07, 0.0, 0.0, 0.0, 1.2184696791468346e-07)",0.0,0.0,0.0,"(-1.0, 0.0, 0.0, 0.0, 8.999999999999999e-08, 0.0, 0.0, 0.0, 8.999999999999999e-08)"
1970/01/01/01:00:14.814000,216,14,814000000,base_link,0.00177918632218,-0.00364945420657,-0.706448617111,-0.707752806969,"(1.0, 0.0, 0.0, 0.0, 1.0, 0.0, 0.0, 0.0, 1.0)",0.0122188217938,0.0161560364068,0.00374074699357,"(1.2184696791468346e-07, 0.0, 0.0, 0.0, 1.2184696791468346e-07, 0.0, 0.0, 0.0, 1.2184696791468346e-07)",0.0,0.0,0.0,"(-1.0, 0.0, 0.0, 0.0, 8.999999999999999e-08, 0.0, 0.0, 0.0, 8.999999999999999e-08)"
1970/01/01/01:00:14.832000,217,14,832000000,base_link,0.00175048291893,-0.00363143782824,-0.706513957898,-0.707687719064,"(1.0, 0.0, 0.0, 0.0, 1.0, 0.0, 0.0, 0.0, 1.0)",-0.000525571580511,-0.00892624817789,0.00789858959615,"(1.2184696791468346e-07, 0.0, 0.0, 0.0, 1.2184696791468346e-07, 0.0, 0.0, 0.0, 1.2184696791468346e-07)",0.0,0.0,0.0,"(-1.0, 0.0, 0.0, 0.0, 8.999999999999999e-08, 0.0, 0.0, 0.0, 8.999999999999999e-08)"
1970/01/01/01:00:14.852000,218,14,852000000,base_link,0.00179423603982,-0.00367784142613,-0.706514555733,-0.707686784055,"(1.0, 0.0, 0.0, 0.0, 1.0, 0.0, 0.0, 0.0, 1.0)",-0.00209257612005,0.00503023341298,0.000417335424572,"(1.2184696791468346e-07, 0.0, 0.0, 0.0, 1.2184696791468346e-07, 0.0, 0.0, 0.0, 1.2184696791468346e-07)",0.0,0.0,0.0,"(-1.0, 0.0, 0.0, 0.0, 8.999999999999999e-08, 0.0, 0.0, 0.0, 8.999999999999999e-08)"
1970/01/01/01:00:14.872000,219,14,871000000,base_link,0.00178105839958,-0.00358296640059,-0.706526933077,-0.707674996766,"(1.0, 0.0, 0.0, 0.0, 1.0, 0.0, 0.0, 0.0, 1.0)",-0.0068025784567,-0.00959965959191,3.84342274629e-05,"(1.2184696791468346e-07, 0.0, 0.0, 0.0, 1.2184696791468346e-07, 0.0, 0.0, 0.0, 1.2184696791468346e-07)",0.0,0.0,0.0,"(-1.0, 0.0, 0.0, 0.0, 8.999999999999999e-08, 0.0, 0.0, 0.0, 8.999999999999999e-08)"
1970/01/01/01:00:14.892000,220,14,892000000,base_link,0.00177438207535,-0.00364403718409,-0.706540191388,-0.707661316986,"(1.0, 0.0, 0.0, 0.0, 1.0, 0.0, 0.0, 0.0, 1.0)",0.00256558088586,0.00364131387323,-0.000141538563184,"(1.2184696791468346e-07, 0.0, 0.0, 0.0, 1.2184696791468346e-07, 0.0, 0.0, 0.0, 1.2184696791468346e-07)",0.0,0.0,0.0,"(-1.0, 0.0, 0.0, 0.0, 8.999999999999999e-08, 0.0, 0.0, 0.0, 8.999999999999999e-08)"
1970/01/01/01:00:14.914000,221,14,914000000,base_link,0.00174615718701,-0.0037003121172,-0.706545317622,-0.707656022165,"(1.0, 0.0, 0.0, 0.0, 1.0, 0.0, 0.0, 0.0, 1.0)",0.00777442939579,-0.00196011876687,-0.00301625393331,"(1.2184696791468346e-07, 0.0, 0.0, 0.0, 1.2184696791468346e-07, 0.0, 0.0, 0.0, 1.2184696791468346e-07)",0.0,0.0,0.0,"(-1.0, 0.0, 0.0, 0.0, 8.999999999999999e-08, 0.0, 0.0, 0.0, 8.999999999999999e-08)"
1970/01/01/01:00:14.932000,222,14,931000000,base_link,0.00176583235664,-0.00372224346031,-0.706532908257,-0.707668262943,"(1.0, 0.0, 0.0, 0.0, 1.0, 0.0, 0.0, 0.0, 1.0)",-0.00555011443794,-0.000274171528872,-0.00510052870959,"(1.2184696791468346e-07, 0.0, 0.0, 0.0, 1.2184696791468346e-07, 0.0, 0.0, 0.0, 1.2184696791468346e-07)",0.0,0.0,0.0,"(-1.0, 0.0, 0.0, 0.0, 8.999999999999999e-08, 0.0, 0.0, 0.0, 8.999999999999999e-08)"
1970/01/01/01:00:14.952000,223,14,951000000,base_link,0.00182996710078,-0.00375661018169,-0.706497870767,-0.707702878965,"(1.0, 0.0, 0.0, 0.0, 1.0, 0.0, 0.0, 0.0, 1.0)",-0.00428885128349,0.00801042467356,-0.00680516846478,"(1.2184696791468346e-07, 0.0, 0.0, 0.0, 1.2184696791468346e-07, 0.0, 0.0, 0.0, 1.2184696791468346e-07)",0.0,0.0,0.0,"(-1.0, 0.0, 0.0, 0.0, 8.999999999999999e-08, 0.0, 0.0, 0.0, 8.999999999999999e-08)"
1970/01/01/01:00:14.972000,224,14,971000000,base_link,0.0019104961458,-0.00375242554293,-0.706556441962,-0.707644223475,"(1.0, 0.0, 0.0, 0.0, 1.0, 0.0, 0.0, 0.0, 1.0)",-0.0018511719536,0.00231361761689,0.0140317287296,"(1.2184696791468346e-07, 0.0, 0.0, 0.0, 1.2184696791468346e-07, 0.0, 0.0, 0.0, 1.2184696791468346e-07)",0.0,0.0,0.0,"(-1.0, 0.0, 0.0, 0.0, 8.999999999999999e-08, 0.0, 0.0, 0.0, 8.999999999999999e-08)"
1970/01/01/01:00:14.992000,225,14,992000000,base_link,0.00197780688546,-0.00377807297038,-0.706563355897,-0.707637056659,"(1.0, 0.0, 0.0, 0.0, 1.0, 0.0, 0.0, 0.0, 1.0)",-0.00430691195652,0.00847232434899,-0.00181957776658,"(1.2184696791468346e-07, 0.0, 0.0, 0.0, 1.2184696791468346e-07, 0.0, 0.0, 0.0, 1.2184696791468346e-07)",0.0,0.0,0.0,"(-1.0, 0.0, 0.0, 0.0, 8.999999999999999e-08, 0.0, 0.0, 0.0, 8.999999999999999e-08)"
1970/01/01/01:00:15.014000,226,15,12000000,base_link,0.0019590666844,-0.00378737886283,-0.706532477733,-0.707667766236,"(1.0, 0.0, 0.0, 0.0, 1.0, 0.0, 0.0, 0.0, 1.0)",0.00358635885641,0.000935072312132,-0.00684583932161,"(1.2184696791468346e-07, 0.0, 0.0, 0.0, 1.2184696791468346e-07, 0.0, 0.0, 0.0, 1.2184696791468346e-07)",0.0,0.0,0.0,"(-1.0, 0.0, 0.0, 0.0, 8.999999999999999e-08, 0.0, 0.0, 0.0, 8.999999999999999e-08)"
1970/01/01/01:00:15.032000,227,15,32000000,base_link,0.001860897043,-0.00376478066108,-0.706525498684,-0.707675166753,"(1.0, 0.0, 0.0, 0.0, 1.0, 0.0, 0.0, 0.0, 1.0)",0.004414210096,-0.00933627597988,-0.00166477332823,"(1.2184696791468346e-07, 0.0, 0.0, 0.0, 1.2184696791468346e-07, 0.0, 0.0, 0.0, 1.2184696791468346e-07)",0.0,0.0,0.0,"(-1.0, 0.0, 0.0, 0.0, 8.999999999999999e-08, 0.0, 0.0, 0.0, 8.999999999999999e-08)"
1970/01/01/01:00:15.052000,228,15,52000000,base_link,0.0018431751987,-0.00376300827085,-0.706588951382,-0.707611798349,"(1.0, 0.0, 0.0, 0.0, 1.0, 0.0, 0.0, 0.0, 1.0)",0.0013946541585,0.000231041165534,0.00923474319279,"(1.2184696791468346e-07, 0.0, 0.0, 0.0, 1.2184696791468346e-07, 0.0, 0.0, 0.0, 1.2184696791468346e-07)",0.0,0.0,0.0,"(-1.0, 0.0, 0.0, 0.0, 8.999999999999999e-08, 0.0, 0.0, 0.0, 8.999999999999999e-08)"
1970/01/01/01:00:15.072000,229,15,72000000,base_link,0.00192899095672,-0.00382795508268,-0.706611305593,-0.70758902267,"(1.0, 0.0, 0.0, 0.0, 1.0, 0.0, 0.0, 0.0, 1.0)",0.00297552044503,0.00787442922592,0.00541499396786,"(1.2184696791468346e-07, 0.0, 0.0, 0.0, 1.2184696791468346e-07, 0.0, 0.0, 0.0, 1.2184696791468346e-07)",0.0,0.0,0.0,"(-1.0, 0.0, 0.0, 0.0, 8.999999999999999e-08, 0.0, 0.0, 0.0, 8.999999999999999e-08)"
1970/01/01/01:00:15.092000,230,15,92000000,base_link,0.00202748855328,-0.00387574195332,-0.706610004968,-0.707589817533,"(1.0, 0.0, 0.0, 0.0, 1.0, 0.0, 0.0, 0.0, 1.0)",-0.00759112928063,0.00395973399282,-0.00612887507305,"(1.2184696791468346e-07, 0.0, 0.0, 0.0, 1.2184696791468346e-07, 0.0, 0.0, 0.0, 1.2184696791468346e-07)",0.0,0.0,0.0,"(-1.0, 0.0, 0.0, 0.0, 8.999999999999999e-08, 0.0, 0.0, 0.0, 8.999999999999999e-08)"
1970/01/01/01:00:15.114000,231,15,113000000,base_link,0.00203689528535,-0.00386519132944,-0.706617458786,-0.707582279421,"(1.0, 0.0, 0.0, 0.0, 1.0, 0.0, 0.0, 0.0, 1.0)",0.00185892311856,-0.00179915199988,0.00174018472899,"(1.2184696791468346e-07, 0.0, 0.0, 0.0, 1.2184696791468346e-07, 0.0, 0.0, 0.0, 1.2184696791468346e-07)",0.0,0.0,0.0,"(-1.0, 0.0, 0.0, 0.0, 8.999999999999999e-08, 0.0, 0.0, 0.0, 8.999999999999999e-08)"
1970/01/01/01:00:15.132000,232,15,132000000,base_link,0.00202422036152,-0.00389335587864,-0.706602201627,-0.707597452286,"(1.0, 0.0, 0.0, 0.0, 1.0, 0.0, 0.0, 0.0, 1.0)",0.00234805885702,0.000358911289368,-0.00309965549968,"(1.2184696791468346e-07, 0.0, 0.0, 0.0, 1.2184696791468346e-07, 0.0, 0.0, 0.0, 1.2184696791468346e-07)",0.0,0.0,0.0,"(-1.0, 0.0, 0.0, 0.0, 8.999999999999999e-08, 0.0, 0.0, 0.0, 8.999999999999999e-08)"
1970/01/01/01:00:15.151000,233,15,151000000,base_link,0.00199128457504,-0.0039199676622,-0.706632485866,-0.707567083753,"(1.0, 0.0, 0.0, 0.0, 1.0, 0.0, 0.0, 0.0, 1.0)",0.00604971591383,-0.00221956218593,0.00449137762189,"(1.2184696791468346e-07, 0.0, 0.0, 0.0, 1.2184696791468346e-07, 0.0, 0.0, 0.0, 1.2184696791468346e-07)",0.0,0.0,0.0,"(-1.0, 0.0, 0.0, 0.0, 8.999999999999999e-08, 0.0, 0.0, 0.0, 8.999999999999999e-08)"
1970/01/01/01:00:15.172000,234,15,172000000,base_link,0.00204642014384,-0.00399353473932,-0.706660335302,-0.707538728555,"(1.0, 0.0, 0.0, 0.0, 1.0, 0.0, 0.0, 0.0, 1.0)",4.78676520288e-06,0.00578638585284,0.00211524730548,"(1.2184696791468346e-07, 0.0, 0.0, 0.0, 1.2184696791468346e-07, 0.0, 0.0, 0.0, 1.2184696791468346e-07)",0.0,0.0,0.0,"(-1.0, 0.0, 0.0, 0.0, 8.999999999999999e-08, 0.0, 0.0, 0.0, 8.999999999999999e-08)"
1970/01/01/01:00:15.192000,235,15,192000000,base_link,0.00200189644356,-0.00404060437267,-0.70662535173,-0.70757354354,"(1.0, 0.0, 0.0, 0.0, 1.0, 0.0, 0.0, 0.0, 1.0)",-0.00153931858949,-0.00191333517432,-0.00774199329317,"(1.2184696791468346e-07, 0.0, 0.0, 0.0, 1.2184696791468346e-07, 0.0, 0.0, 0.0, 1.2184696791468346e-07)",0.0,0.0,0.0,"(-1.0, 0.0, 0.0, 0.0, 8.999999999999999e-08, 0.0, 0.0, 0.0, 8.999999999999999e-08)"
1970/01/01/01:00:15.211000,236,15,214000000,base_link,0.00195749424475,-0.00409654558835,-0.706659488784,-0.707539406486,"(1.0, 0.0, 0.0, 0.0, 1.0, 0.0, 0.0, 0.0, 1.0)",0.00867190770805,0.000488100282382,0.00502952747047,"(1.2184696791468346e-07, 0.0, 0.0, 0.0, 1.2184696791468346e-07, 0.0, 0.0, 0.0, 1.2184696791468346e-07)",0.0,0.0,0.0,"(-1.0, 0.0, 0.0, 0.0, 8.999999999999999e-08, 0.0, 0.0, 0.0, 8.999999999999999e-08)"
1970/01/01/01:00:15.232000,237,15,232000000,base_link,0.00195067205292,-0.00416209546232,-0.706708527548,-0.707489946254,"(1.0, 0.0, 0.0, 0.0, 1.0, 0.0, 0.0, 0.0, 1.0)",0.00196283124387,0.00174025911838,0.00652998685837,"(1.2184696791468346e-07, 0.0, 0.0, 0.0, 1.2184696791468346e-07, 0.0, 0.0, 0.0, 1.2184696791468346e-07)",0.0,0.0,0.0,"(-1.0, 0.0, 0.0, 0.0, 8.999999999999999e-08, 0.0, 0.0, 0.0, 8.999999999999999e-08)"
1970/01/01/01:00:15.252000,238,15,252000000,base_link,0.00195506372161,-0.00410823854,-0.706688562577,-0.707510248399,"(1.0, 0.0, 0.0, 0.0, 1.0, 0.0, 0.0, 0.0, 1.0)",-0.0073932139203,-0.00738067831844,-0.00435377284884,"(1.2184696791468346e-07, 0.0, 0.0, 0.0, 1.2184696791468346e-07, 0.0, 0.0, 0.0, 1.2184696791468346e-07)",0.0,0.0,0.0,"(-1.0, 0.0, 0.0, 0.0, 8.999999999999999e-08, 0.0, 0.0, 0.0, 8.999999999999999e-08)"
1970/01/01/01:00:15.272000,239,15,272000000,base_link,0.00197304651417,-0.00413860674376,-0.706648471499,-0.707550002302,"(1.0, 0.0, 0.0, 0.0, 1.0, 0.0, 0.0, 0.0, 1.0)",0.000295344361803,0.00214006681927,-0.00102704705205,"(1.2184696791468346e-07, 0.0, 0.0, 0.0, 1.2184696791468346e-07, 0.0, 0.0, 0.0, 1.2184696791468346e-07)",0.0,0.0,0.0,"(-1.0, 0.0, 0.0, 0.0, 8.999999999999999e-08, 0.0, 0.0, 0.0, 8.999999999999999e-08)"
1970/01/01/01:00:15.292000,240,15,292000000,base_link,0.00198357178408,-0.0042038516293,-0.706631007763,-0.707567128863,"(1.0, 0.0, 0.0, 0.0, 1.0, 0.0, 0.0, 0.0, 1.0)",0.00232608988881,0.00295497383922,-0.00293316901661,"(1.2184696791468346e-07, 0.0, 0.0, 0.0, 1.2184696791468346e-07, 0.0, 0.0, 0.0, 1.2184696791468346e-07)",0.0,0.0,0.0,"(-1.0, 0.0, 0.0, 0.0, 8.999999999999999e-08, 0.0, 0.0, 0.0, 8.999999999999999e-08)"
1970/01/01/01:00:15.314000,241,15,314000000,base_link,0.00192272375327,-0.00424249419784,-0.706613616508,-0.707584351531,"(1.0, 0.0, 0.0, 0.0, 1.0, 0.0, 0.0, 0.0, 1.0)",0.00596118578687,-0.00387304741889,-0.00733932573348,"(1.2184696791468346e-07, 0.0, 0.0, 0.0, 1.2184696791468346e-07, 0.0, 0.0, 0.0, 1.2184696791468346e-07)",0.0,0.0,0.0,"(-1.0, 0.0, 0.0, 0.0, 8.999999999999999e-08, 0.0, 0.0, 0.0, 8.999999999999999e-08)"
1970/01/01/01:00:15.332000,242,15,331000000,base_link,0.00197326918453,-0.00417033006748,-0.706637214504,-0.70756109071,"(1.0, 0.0, 0.0, 0.0, 1.0, 0.0, 0.0, 0.0, 1.0)",-0.00881213415414,-0.00461245235056,0.00355049944483,"(1.2184696791468346e-07, 0.0, 0.0, 0.0, 1.2184696791468346e-07, 0.0, 0.0, 0.0, 1.2184696791468346e-07)",0.0,0.0,0.0,"(-1.0, 0.0, 0.0, 0.0, 8.999999999999999e-08, 0.0, 0.0, 0.0, 8.999999999999999e-08)"
1970/01/01/01:00:15.352000,243,15,352000000,base_link,0.00204373780974,-0.00424176066158,-0.706717097558,-0.7074806176,"(1.0, 0.0, 0.0, 0.0, 1.0, 0.0, 0.0, 0.0, 1.0)",-0.00016357190907,0.0124000683427,0.00866942480206,"(1.2184696791468346e-07, 0.0, 0.0, 0.0, 1.2184696791468346e-07, 0.0, 0.0, 0.0, 1.2184696791468346e-07)",0.0,0.0,0.0,"(-1.0, 0.0, 0.0, 0.0, 8.999999999999999e-08, 0.0, 0.0, 0.0, 8.999999999999999e-08)"
1970/01/01/01:00:15.372000,244,15,372000000,base_link,0.00204803398947,-0.00423797880511,-0.706711673168,-0.70748604199,"(1.0, 0.0, 0.0, 0.0, 1.0, 0.0, 0.0, 0.0, 1.0)",-0.00192017620429,0.0016509599518,-0.0044606407173,"(1.2184696791468346e-07, 0.0, 0.0, 0.0, 1.2184696791468346e-07, 0.0, 0.0, 0.0, 1.2184696791468346e-07)",0.0,0.0,0.0,"(-1.0, 0.0, 0.0, 0.0, 8.999999999999999e-08, 0.0, 0.0, 0.0, 8.999999999999999e-08)"
1970/01/01/01:00:15.392000,245,15,392000000,base_link,0.00210331065143,-0.00423071201342,-0.706789134754,-0.707408580404,"(1.0, 0.0, 0.0, 0.0, 1.0, 0.0, 0.0, 0.0, 1.0)",-0.00255323853344,0.00356078357436,0.011625982821,"(1.2184696791468346e-07, 0.0, 0.0, 0.0, 1.2184696791468346e-07, 0.0, 0.0, 0.0, 1.2184696791468346e-07)",0.0,0.0,0.0,"(-1.0, 0.0, 0.0, 0.0, 8.999999999999999e-08, 0.0, 0.0, 0.0, 8.999999999999999e-08)"
1970/01/01/01:00:15.415000,246,15,414000000,base_link,0.002146210134,-0.004320084488,-0.706840050472,-0.70735707463,"(1.0, 0.0, 0.0, 0.0, 1.0, 0.0, 0.0, 0.0, 1.0)",0.00399609515443,0.00793740153313,0.00536226574332,"(1.2184696791468346e-07, 0.0, 0.0, 0.0, 1.2184696791468346e-07, 0.0, 0.0, 0.0, 1.2184696791468346e-07)",0.0,0.0,0.0,"(-1.0, 0.0, 0.0, 0.0, 8.999999999999999e-08, 0.0, 0.0, 0.0, 8.999999999999999e-08)"
1970/01/01/01:00:15.432000,247,15,431000000,base_link,0.00219543394874,-0.00442476186622,-0.706841347291,-0.707354934875,"(1.0, 0.0, 0.0, 0.0, 1.0, 0.0, 0.0, 0.0, 1.0)",0.00147919356823,0.00953747145832,-0.000613450305536,"(1.2184696791468346e-07, 0.0, 0.0, 0.0, 1.2184696791468346e-07, 0.0, 0.0, 0.0, 1.2184696791468346e-07)",0.0,0.0,0.0,"(-1.0, 0.0, 0.0, 0.0, 8.999999999999999e-08, 0.0, 0.0, 0.0, 8.999999999999999e-08)"
1970/01/01/01:00:15.451000,248,15,451000000,base_link,0.00228279901503,-0.00435430493018,-0.706918202007,-0.707278248746,"(1.0, 0.0, 0.0, 0.0, 1.0, 0.0, 0.0, 0.0, 1.0)",-0.00782833620906,-0.00355849391781,0.00738054094836,"(1.2184696791468346e-07, 0.0, 0.0, 0.0, 1.2184696791468346e-07, 0.0, 0.0, 0.0, 1.2184696791468346e-07)",0.0,0.0,0.0,"(-1.0, 0.0, 0.0, 0.0, 8.999999999999999e-08, 0.0, 0.0, 0.0, 8.999999999999999e-08)"
1970/01/01/01:00:15.472000,249,15,472000000,base_link,0.0022556619599,-0.00440080451093,-0.706919036506,-0.707277245659,"(1.0, 0.0, 0.0, 0.0, 1.0, 0.0, 0.0, 0.0, 1.0)",0.00690201343969,0.00123011635151,0.00240823393688,"(1.2184696791468346e-07, 0.0, 0.0, 0.0, 1.2184696791468346e-07, 0.0, 0.0, 0.0, 1.2184696791468346e-07)",0.0,0.0,0.0,"(-1.0, 0.0, 0.0, 0.0, 8.999999999999999e-08, 0.0, 0.0, 0.0, 8.999999999999999e-08)"
1970/01/01/01:00:15.492000,250,15,492000000,base_link,0.00231008259632,-0.00436270919287,-0.706855026227,-0.707341255938,"(1.0, 0.0, 0.0, 0.0, 1.0, 0.0, 0.0, 0.0, 1.0)",-0.00190285604913,-0.0030477703549,-0.0129216443747,"(1.2184696791468346e-07, 0.0, 0.0, 0.0, 1.2184696791468346e-07, 0.0, 0.0, 0.0, 1.2184696791468346e-07)",0.0,0.0,0.0,"(-1.0, 0.0, 0.0, 0.0, 8.999999999999999e-08, 0.0, 0.0, 0.0, 8.999999999999999e-08)"
1970/01/01/01:00:15.514000,251,15,514000000,base_link,0.00229442940495,-0.00439843877211,-0.706762358416,-0.707433755161,"(1.0, 0.0, 0.0, 0.0, 1.0, 0.0, 0.0, 0.0, 1.0)",0.00212894729339,0.00133682822343,-0.0126048624516,"(1.2184696791468346e-07, 0.0, 0.0, 0.0, 1.2184696791468346e-07, 0.0, 0.0, 0.0, 1.2184696791468346e-07)",0.0,0.0,0.0,"(-1.0, 0.0, 0.0, 0.0, 8.999999999999999e-08, 0.0, 0.0, 0.0, 8.999999999999999e-08)"
1970/01/01/01:00:15.532000,252,15,532000000,base_link,0.0021860022743,-0.00437146585919,-0.706760868295,-0.707435666751,"(1.0, 0.0, 0.0, 0.0, 1.0, 0.0, 0.0, 0.0, 1.0)",0.00537504442036,-0.0113003393635,0.00220625661314,"(1.2184696791468346e-07, 0.0, 0.0, 0.0, 1.2184696791468346e-07, 0.0, 0.0, 0.0, 1.2184696791468346e-07)",0.0,0.0,0.0,"(-1.0, 0.0, 0.0, 0.0, 8.999999999999999e-08, 0.0, 0.0, 0.0, 8.999999999999999e-08)"
1970/01/01/01:00:15.552000,253,15,551000000,base_link,0.00220883796366,-0.00434380896549,-0.706718552982,-0.707478150651,"(1.0, 0.0, 0.0, 0.0, 1.0, 0.0, 0.0, 0.0, 1.0)",-0.00435749068856,-0.000151920598,-0.00364690436982,"(1.2184696791468346e-07, 0.0, 0.0, 0.0, 1.2184696791468346e-07, 0.0, 0.0, 0.0, 1.2184696791468346e-07)",0.0,0.0,0.0,"(-1.0, 0.0, 0.0, 0.0, 8.999999999999999e-08, 0.0, 0.0, 0.0, 8.999999999999999e-08)"
1970/01/01/01:00:15.572000,254,15,571000000,base_link,0.00233405641522,-0.004384818343,-0.706663041673,-0.707532819024,"(1.0, 0.0, 0.0, 0.0, 1.0, 0.0, 0.0, 0.0, 1.0)",-0.0100619001314,0.00897236354649,-0.0064231492579,"(1.2184696791468346e-07, 0.0, 0.0, 0.0, 1.2184696791468346e-07, 0.0, 0.0, 0.0, 1.2184696791468346e-07)",0.0,0.0,0.0,"(-1.0, 0.0, 0.0, 0.0, 8.999999999999999e-08, 0.0, 0.0, 0.0, 8.999999999999999e-08)"
1970/01/01/01:00:15.592000,255,15,591000000,base_link,0.0022971826149,-0.00436025455054,-0.706689329164,-0.707506784413,"(1.0, 0.0, 0.0, 0.0, 1.0, 0.0, 0.0, 0.0, 1.0)",0.000573742494453,-0.00483676651493,0.00445288512856,"(1.2184696791468346e-07, 0.0, 0.0, 0.0, 1.2184696791468346e-07, 0.0, 0.0, 0.0, 1.2184696791468346e-07)",0.0,0.0,0.0,"(-1.0, 0.0, 0.0, 0.0, 8.999999999999999e-08, 0.0, 0.0, 0.0, 8.999999999999999e-08)"
1970/01/01/01:00:15.611000,256,15,611000000,base_link,0.00237546997442,-0.0043346158488,-0.706686591183,-0.707509438101,"(1.0, 0.0, 0.0, 0.0, 1.0, 0.0, 0.0, 0.0, 1.0)",-0.00759767601267,0.00171911006328,0.00282519217581,"(1.2184696791468346e-07, 0.0, 0.0, 0.0, 1.2184696791468346e-07, 0.0, 0.0, 0.0, 1.2184696791468346e-07)",0.0,0.0,0.0,"(-1.0, 0.0, 0.0, 0.0, 8.999999999999999e-08, 0.0, 0.0, 0.0, 8.999999999999999e-08)"
1970/01/01/01:00:15.632000,257,15,632000000,base_link,0.00241080022873,-0.00430525398336,-0.70670583764,-0.707490360231,"(1.0, 0.0, 0.0, 0.0, 1.0, 0.0, 0.0, 0.0, 1.0)",-0.00388770829886,-0.000559036037885,0.00269771483727,"(1.2184696791468346e-07, 0.0, 0.0, 0.0, 1.2184696791468346e-07, 0.0, 0.0, 0.0, 1.2184696791468346e-07)",0.0,0.0,0.0,"(-1.0, 0.0, 0.0, 0.0, 8.999999999999999e-08, 0.0, 0.0, 0.0, 8.999999999999999e-08)"
1970/01/01/01:00:15.653000,258,15,653000000,base_link,0.00244748214564,-0.00430297574864,-0.706742725476,-0.707453303808,"(1.0, 0.0, 0.0, 0.0, 1.0, 0.0, 0.0, 0.0, 1.0)",-0.00175076804589,0.00350290979259,0.000883103755768,"(1.2184696791468346e-07, 0.0, 0.0, 0.0, 1.2184696791468346e-07, 0.0, 0.0, 0.0, 1.2184696791468346e-07)",0.0,0.0,0.0,"(-1.0, 0.0, 0.0, 0.0, 8.999999999999999e-08, 0.0, 0.0, 0.0, 8.999999999999999e-08)"
1970/01/01/01:00:15.672000,259,15,672000000,base_link,0.00242215370069,-0.00426132955859,-0.706768947566,-0.70742758748,"(1.0, 0.0, 0.0, 0.0, 1.0, 0.0, 0.0, 0.0, 1.0)",-0.00373383634724,-0.00913708284497,0.00594160426408,"(1.2184696791468346e-07, 0.0, 0.0, 0.0, 1.2184696791468346e-07, 0.0, 0.0, 0.0, 1.2184696791468346e-07)",0.0,0.0,0.0,"(-1.0, 0.0, 0.0, 0.0, 8.999999999999999e-08, 0.0, 0.0, 0.0, 8.999999999999999e-08)"
1970/01/01/01:00:15.692000,260,15,692000000,base_link,0.00244921782201,-0.004224895666,-0.706770859094,-0.707425675952,"(1.0, 0.0, 0.0, 0.0, 1.0, 0.0, 0.0, 0.0, 1.0)",-0.00824584066868,-0.00346641312353,-0.000578948180191,"(1.2184696791468346e-07, 0.0, 0.0, 0.0, 1.2184696791468346e-07, 0.0, 0.0, 0.0, 1.2184696791468346e-07)",0.0,0.0,0.0,"(-1.0, 0.0, 0.0, 0.0, 8.999999999999999e-08, 0.0, 0.0, 0.0, 8.999999999999999e-08)"
1970/01/01/01:00:15.714000,261,15,713000000,base_link,0.00248553860958,-0.00429818170926,-0.706789274427,-0.707406670563,"(1.0, 0.0, 0.0, 0.0, 1.0, 0.0, 0.0, 0.0, 1.0)",0.00436965702102,0.00873071141541,-0.000619341153651,"(1.2184696791468346e-07, 0.0, 0.0, 0.0, 1.2184696791468346e-07, 0.0, 0.0, 0.0, 1.2184696791468346e-07)",0.0,0.0,0.0,"(-1.0, 0.0, 0.0, 0.0, 8.999999999999999e-08, 0.0, 0.0, 0.0, 8.999999999999999e-08)"
1970/01/01/01:00:15.732000,262,15,732000000,base_link,0.00248560676894,-0.00423256598084,-0.706736366159,-0.707459916007,"(1.0, 0.0, 0.0, 0.0, 1.0, 0.0, 0.0, 0.0, 1.0)",-0.00233302102424,-0.00799147505313,-0.00824719667435,"(1.2184696791468346e-07, 0.0, 0.0, 0.0, 1.2184696791468346e-07, 0.0, 0.0, 0.0, 1.2184696791468346e-07)",0.0,0.0,0.0,"(-1.0, 0.0, 0.0, 0.0, 8.999999999999999e-08, 0.0, 0.0, 0.0, 8.999999999999999e-08)"
1970/01/01/01:00:15.752000,263,15,751000000,base_link,0.00242638344974,-0.0043261231765,-0.706758352017,-0.707437761561,"(1.0, 0.0, 0.0, 0.0, 1.0, 0.0, 0.0, 0.0, 1.0)",0.015389344655,0.00659700110555,0.0046573872678,"(1.2184696791468346e-07, 0.0, 0.0, 0.0, 1.2184696791468346e-07, 0.0, 0.0, 0.0, 1.2184696791468346e-07)",0.0,0.0,0.0,"(-1.0, 0.0, 0.0, 0.0, 8.999999999999999e-08, 0.0, 0.0, 0.0, 8.999999999999999e-08)"
1970/01/01/01:00:15.768000,264,15,768000000,base_link,0.00245241950077,-0.00435860670754,-0.706725601302,-0.707470090807,"(1.0, 0.0, 0.0, 0.0, 1.0, 0.0, 0.0, 0.0, 1.0)",-0.00267840060405,-0.000698414281942,-0.00826672278345,"(1.2184696791468346e-07, 0.0, 0.0, 0.0, 1.2184696791468346e-07, 0.0, 0.0, 0.0, 1.2184696791468346e-07)",0.0,0.0,0.0,"(-1.0, 0.0, 0.0, 0.0, 8.999999999999999e-08, 0.0, 0.0, 0.0, 8.999999999999999e-08)"
1970/01/01/01:00:15.792000,265,15,792000000,base_link,0.00247598485745,-0.00440129553818,-0.70676594699,-0.707429407944,"(1.0, 0.0, 0.0, 0.0, 1.0, 0.0, 0.0, 0.0, 1.0)",0.0024401138071,0.00541358208284,0.00765500264242,"(1.2184696791468346e-07, 0.0, 0.0, 0.0, 1.2184696791468346e-07, 0.0, 0.0, 0.0, 1.2184696791468346e-07)",0.0,0.0,0.0,"(-1.0, 0.0, 0.0, 0.0, 8.999999999999999e-08, 0.0, 0.0, 0.0, 8.999999999999999e-08)"
1970/01/01/01:00:15.813000,266,15,813000000,base_link,0.0023956183906,-0.00441971074753,-0.706798909221,-0.707396698594,"(1.0, 0.0, 0.0, 0.0, 1.0, 0.0, 0.0, 0.0, 1.0)",0.0116186030209,-0.00624187430367,0.00218775449321,"(1.2184696791468346e-07, 0.0, 0.0, 0.0, 1.2184696791468346e-07, 0.0, 0.0, 0.0, 1.2184696791468346e-07)",0.0,0.0,0.0,"(-1.0, 0.0, 0.0, 0.0, 8.999999999999999e-08, 0.0, 0.0, 0.0, 8.999999999999999e-08)"
1970/01/01/01:00:15.832000,267,15,831000000,base_link,0.00225549987564,-0.00440820597498,-0.706799907225,-0.707396290647,"(1.0, 0.0, 0.0, 0.0, 1.0, 0.0, 0.0, 0.0, 1.0)",0.00546145625412,-0.00968643836677,0.00014669331722,"(1.2184696791468346e-07, 0.0, 0.0, 0.0, 1.2184696791468346e-07, 0.0, 0.0, 0.0, 1.2184696791468346e-07)",0.0,0.0,0.0,"(-1.0, 0.0, 0.0, 0.0, 8.999999999999999e-08, 0.0, 0.0, 0.0, 8.999999999999999e-08)"
1970/01/01/01:00:15.852000,268,15,852000000,base_link,0.00227855774145,-0.00445906775455,-0.706769767824,-0.707426008579,"(1.0, 0.0, 0.0, 0.0, 1.0, 0.0, 0.0, 0.0, 1.0)",-0.0025347485207,0.00710222497582,-0.00221431534737,"(1.2184696791468346e-07, 0.0, 0.0, 0.0, 1.2184696791468346e-07, 0.0, 0.0, 0.0, 1.2184696791468346e-07)",0.0,0.0,0.0,"(-1.0, 0.0, 0.0, 0.0, 8.999999999999999e-08, 0.0, 0.0, 0.0, 8.999999999999999e-08)"
1970/01/01/01:00:15.871000,269,15,871000000,base_link,0.00224997040667,-0.00449012924104,-0.706767418878,-0.707428188937,"(1.0, 0.0, 0.0, 0.0, 1.0, 0.0, 0.0, 0.0, 1.0)",0.0102833583951,-0.00347110955045,0.00564901297912,"(1.2184696791468346e-07, 0.0, 0.0, 0.0, 1.2184696791468346e-07, 0.0, 0.0, 0.0, 1.2184696791468346e-07)",0.0,0.0,0.0,"(-1.0, 0.0, 0.0, 0.0, 8.999999999999999e-08, 0.0, 0.0, 0.0, 8.999999999999999e-08)"
1970/01/01/01:00:15.892000,270,15,892000000,base_link,0.00222849675199,-0.00448294303873,-0.706801083941,-0.707394692462,"(1.0, 0.0, 0.0, 0.0, 1.0, 0.0, 0.0, 0.0, 1.0)",-0.00337542081252,-0.00475490186363,-0.00200735707767,"(1.2184696791468346e-07, 0.0, 0.0, 0.0, 1.2184696791468346e-07, 0.0, 0.0, 0.0, 1.2184696791468346e-07)",0.0,0.0,0.0,"(-1.0, 0.0, 0.0, 0.0, 8.999999999999999e-08, 0.0, 0.0, 0.0, 8.999999999999999e-08)"
1970/01/01/01:00:15.914000,271,15,914000000,base_link,0.00217898227216,-0.00445466431438,-0.706793546899,-0.707402650972,"(1.0, 0.0, 0.0, 0.0, 1.0, 0.0, 0.0, 0.0, 1.0)",-0.00261984090321,-0.00299884029664,-0.00140854530036,"(1.2184696791468346e-07, 0.0, 0.0, 0.0, 1.2184696791468346e-07, 0.0, 0.0, 0.0, 1.2184696791468346e-07)",0.0,0.0,0.0,"(-1.0, 0.0, 0.0, 0.0, 8.999999999999999e-08, 0.0, 0.0, 0.0, 8.999999999999999e-08)"
1970/01/01/01:00:15.932000,272,15,931000000,base_link,0.00214741889244,-0.0044779609849,-0.706805244234,-0.707390869344,"(1.0, 0.0, 0.0, 0.0, 1.0, 0.0, 0.0, 0.0, 1.0)",0.00540682766587,0.000164789438713,0.000331843708409,"(1.2184696791468346e-07, 0.0, 0.0, 0.0, 1.2184696791468346e-07, 0.0, 0.0, 0.0, 1.2184696791468346e-07)",0.0,0.0,0.0,"(-1.0, 0.0, 0.0, 0.0, 8.999999999999999e-08, 0.0, 0.0, 0.0, 8.999999999999999e-08)"
1970/01/01/01:00:15.952000,273,15,952000000,base_link,0.00211354928985,-0.00449142163464,-0.706800507159,-0.707395522125,"(1.0, 0.0, 0.0, 0.0, 1.0, 0.0, 0.0, 0.0, 1.0)",0.00895313359797,0.000391795299947,-0.00562124606222,"(1.2184696791468346e-07, 0.0, 0.0, 0.0, 1.2184696791468346e-07, 0.0, 0.0, 0.0, 1.2184696791468346e-07)",0.0,0.0,0.0,"(-1.0, 0.0, 0.0, 0.0, 8.999999999999999e-08, 0.0, 0.0, 0.0, 8.999999999999999e-08)"
1970/01/01/01:00:15.972000,274,15,971000000,base_link,0.00210045594331,-0.00459928546278,-0.706743233049,-0.707452037592,"(1.0, 0.0, 0.0, 0.0, 1.0, 0.0, 0.0, 0.0, 1.0)",0.00592328328639,0.00613661855459,-0.00777277396992,"(1.2184696791468346e-07, 0.0, 0.0, 0.0, 1.2184696791468346e-07, 0.0, 0.0, 0.0, 1.2184696791468346e-07)",0.0,0.0,0.0,"(-1.0, 0.0, 0.0, 0.0, 8.999999999999999e-08, 0.0, 0.0, 0.0, 8.999999999999999e-08)"
1970/01/01/01:00:15.992000,275,15,992000000,base_link,0.00217312871699,-0.00463612468951,-0.706740048698,-0.707454884768,"(1.0, 0.0, 0.0, 0.0, 1.0, 0.0, 0.0, 0.0, 1.0)",-0.00428380025551,0.00837432499975,0.000658512464724,"(1.2184696791468346e-07, 0.0, 0.0, 0.0, 1.2184696791468346e-07, 0.0, 0.0, 0.0, 1.2184696791468346e-07)",0.0,0.0,0.0,"(-1.0, 0.0, 0.0, 0.0, 8.999999999999999e-08, 0.0, 0.0, 0.0, 8.999999999999999e-08)"
1970/01/01/01:00:16.014000,276,16,13000000,base_link,0.00219311134458,-0.00466550655823,-0.706644427048,-0.707550169243,"(1.0, 0.0, 0.0, 0.0, 1.0, 0.0, 0.0, 0.0, 1.0)",-0.00447924807668,0.00910301227123,-0.0163843743503,"(1.2184696791468346e-07, 0.0, 0.0, 0.0, 1.2184696791468346e-07, 0.0, 0.0, 0.0, 1.2184696791468346e-07)",0.0,0.0,0.0,"(-1.0, 0.0, 0.0, 0.0, 8.999999999999999e-08, 0.0, 0.0, 0.0, 8.999999999999999e-08)"
1970/01/01/01:00:16.032000,277,16,32000000,base_link,0.00218201618671,-0.00472456680534,-0.706564471924,-0.707629534311,"(1.0, 0.0, 0.0, 0.0, 1.0, 0.0, 0.0, 0.0, 1.0)",0.0061556994915,0.00150347221643,-0.0067866127938,"(1.2184696791468346e-07, 0.0, 0.0, 0.0, 1.2184696791468346e-07, 0.0, 0.0, 0.0, 1.2184696791468346e-07)",0.0,0.0,0.0,"(-1.0, 0.0, 0.0, 0.0, 8.999999999999999e-08, 0.0, 0.0, 0.0, 8.999999999999999e-08)"
1970/01/01/01:00:16.052000,278,16,51000000,base_link,0.00212467062487,-0.00469933417861,-0.706528656529,-0.707665686881,"(1.0, 0.0, 0.0, 0.0, 1.0, 0.0, 0.0, 0.0, 1.0)",-0.000740847084671,-0.0101335309446,-0.00739184906706,"(1.2184696791468346e-07, 0.0, 0.0, 0.0, 1.2184696791468346e-07, 0.0, 0.0, 0.0, 1.2184696791468346e-07)",0.0,0.0,0.0,"(-1.0, 0.0, 0.0, 0.0, 8.999999999999999e-08, 0.0, 0.0, 0.0, 8.999999999999999e-08)"
1970/01/01/01:00:16.073000,279,16,72000000,base_link,0.0020671463505,-0.00475816961509,-0.706531398091,-0.707662776732,"(1.0, 0.0, 0.0, 0.0, 1.0, 0.0, 0.0, 0.0, 1.0)",0.00573093816638,0.00487771909684,0.00284724053927,"(1.2184696791468346e-07, 0.0, 0.0, 0.0, 1.2184696791468346e-07, 0.0, 0.0, 0.0, 1.2184696791468346e-07)",0.0,0.0,0.0,"(-1.0, 0.0, 0.0, 0.0, 8.999999999999999e-08, 0.0, 0.0, 0.0, 8.999999999999999e-08)"
1970/01/01/01:00:16.092000,280,16,92000000,base_link,0.00202450468811,-0.00469414484789,-0.706546456987,-0.707648223598,"(1.0, 0.0, 0.0, 0.0, 1.0, 0.0, 0.0, 0.0, 1.0)",-0.000462742056698,-0.00874320976436,-0.00319918384776,"(1.2184696791468346e-07, 0.0, 0.0, 0.0, 1.2184696791468346e-07, 0.0, 0.0, 0.0, 1.2184696791468346e-07)",0.0,0.0,0.0,"(-1.0, 0.0, 0.0, 0.0, 8.999999999999999e-08, 0.0, 0.0, 0.0, 8.999999999999999e-08)"
1970/01/01/01:00:16.113000,281,16,111000000,base_link,0.00207232349815,-0.00471018707442,-0.706551749421,-0.707642762577,"(1.0, 0.0, 0.0, 0.0, 1.0, 0.0, 0.0, 0.0, 1.0)",-0.0047402898781,0.00967949070036,-0.00254221609794,"(1.2184696791468346e-07, 0.0, 0.0, 0.0, 1.2184696791468346e-07, 0.0, 0.0, 0.0, 1.2184696791468346e-07)",0.0,0.0,0.0,"(-1.0, 0.0, 0.0, 0.0, 8.999999999999999e-08, 0.0, 0.0, 0.0, 8.999999999999999e-08)"
