time,.header.seq,.header.stamp.secs,.header.stamp.nsecs,.header.frame_id,.orientation.x,.orientation.y,.orientation.z,.orientation.w,.orientation_covariance,.angular_velocity.x,.angular_velocity.y,.angular_velocity.z,.angular_velocity_covariance,.linear_acceleration.x,.linear_acceleration.y,.linear_acceleration.z,.linear_acceleration_covariance
1970/01/01/01:00:10.646000,0,10,645000000,base_link,0.00027817946417,4.57149108272e-06,-0.674498087622,-0.738276541948,"(1.0, 0.0, 0.0, 0.0, 1.0, 0.0, 0.0, 0.0, 1.0)",0.00326015870087,-0.00111330847722,0.00154553330503,"(1.2184696791468346e-07, 0.0, 0.0, 0.0, 1.2184696791468346e-07, 0.0, 0.0, 0.0, 1.2184696791468346e-07)",-0.0226951576769,0.0597230121493,9.65172863007,"(8.999999999999999e-08, 0.0, 0.0, 0.0, 8.999999999999999e-08, 0.0, 0.0, 0.0, 8.999999999999999e-08)"
1970/01/01/01:00:10.649000,1,10,649000000,base_link,0.000278179448771,4.57147191789e-06,-0.674498104303,-0.738276564662,"(1.0, 0.0, 0.0, 0.0, 1.0, 0.0, 0.0, 0.0, 1.0)",0.00326015870087,-0.00111330847722,0.00154553330503,"(1.2184696791468346e-07, 0.0, 0.0, 0.0, 1.2184696791468346e-07, 0.0, 0.0, 0.0, 1.2184696791468346e-07)",-0.0226951576769,0.0597230121493,9.65172863007,"(8.999999999999999e-08, 0.0, 0.0, 0.0, 8.999999999999999e-08, 0.0, 0.0, 0.0, 8.999999999999999e-08)"
1970/01/01/01:00:10.663000,2,10,663000000,base_link,0.000340509431101,-1.66241946618e-05,-0.674547653191,-0.738231314752,"(1.0, 0.0, 0.0, 0.0, 1.0, 0.0, 0.0, 0.0, 1.0)",-0.00195966218598,0.00318754883483,0.00685693928972,"(1.2184696791468346e-07, 0.0, 0.0, 0.0, 1.2184696791468346e-07, 0.0, 0.0, 0.0, 1.2184696791468346e-07)",-0.414631843567,0.00709504447878,9.7950592041,"(8.999999999999999e-08, 0.0, 0.0, 0.0, 8.999999999999999e-08, 0.0, 0.0, 0.0, 8.999999999999999e-08)"
1970/01/01/01:00:10.684000,3,10,683000000,base_link,0.000331468685141,4.63156410424e-06,-0.67468339502,-0.738107289748,"(1.0, 0.0, 0.0, 0.0, 1.0, 0.0, 0.0, 0.0, 1.0)",-0.000417241943069,-0.00461742980406,0.0221858993173,"(1.2184696791468346e-07, 0.0, 0.0, 0.0, 1.2184696791468346e-07, 0.0, 0.0, 0.0, 1.2184696791468346e-07)",-1.81168234348,-0.0366977639496,9.71446323395,"(8.999999999999999e-08, 0.0, 0.0, 0.0, 8.999999999999999e-08, 0.0, 0.0, 0.0, 8.999999999999999e-08)"
1970/01/01/01:00:10.703000,4,10,703000000,base_link,0.000336693392052,6.65728816975e-05,-0.67533371299,-0.737512184149,"(1.0, 0.0, 0.0, 0.0, 1.0, 0.0, 0.0, 0.0, 1.0)",-0.00320195313543,-0.0055981609039,0.0974470153451,"(1.2184696791468346e-07, 0.0, 0.0, 0.0, 1.2184696791468346e-07, 0.0, 0.0, 0.0, 1.2184696791468346e-07)",-3.0109372139,0.0183213092387,9.89359474182,"(8.999999999999999e-08, 0.0, 0.0, 0.0, 8.999999999999999e-08, 0.0, 0.0, 0.0, 8.999999999999999e-08)"
1970/01/01/01:00:10.723000,5,10,723000000,base_link,0.000448221361837,6.79318294488e-05,-0.676419681859,-0.736516325242,"(1.0, 0.0, 0.0, 0.0, 1.0, 0.0, 0.0, 0.0, 1.0)",-0.0089670624584,0.00241994857788,0.166451960802,"(1.2184696791468346e-07, 0.0, 0.0, 0.0, 1.2184696791468346e-07, 0.0, 0.0, 0.0, 1.2184696791468346e-07)",-0.413737803698,0.0168418176472,10.3170127869,"(8.999999999999999e-08, 0.0, 0.0, 0.0, 8.999999999999999e-08, 0.0, 0.0, 0.0, 8.999999999999999e-08)"
1970/01/01/01:00:10.745000,6,10,745000000,base_link,0.000424207783308,-3.65918609498e-05,-0.677716342825,-0.735323345524,"(1.0, 0.0, 0.0, 0.0, 1.0, 0.0, 0.0, 0.0, 1.0)",0.00892283115536,0.00554640498012,0.176813870668,"(1.2184696791468346e-07, 0.0, 0.0, 0.0, 1.2184696791468346e-07, 0.0, 0.0, 0.0, 1.2184696791468346e-07)",0.0478724204004,0.109781451523,10.293129921,"(8.999999999999999e-08, 0.0, 0.0, 0.0, 8.999999999999999e-08, 0.0, 0.0, 0.0, 8.999999999999999e-08)"
1970/01/01/01:00:10.763000,7,10,763000000,base_link,0.000450482762519,-3.06990812153e-05,-0.679216752192,-0.733937659878,"(1.0, 0.0, 0.0, 0.0, 1.0, 0.0, 0.0, 0.0, 1.0)",0.000514154904522,-0.00654002465308,0.171674579382,"(1.2184696791468346e-07, 0.0, 0.0, 0.0, 1.2184696791468346e-07, 0.0, 0.0, 0.0, 1.2184696791468346e-07)",0.0724969506264,-0.0652466267347,10.1785106659,"(8.999999999999999e-08, 0.0, 0.0, 0.0, 8.999999999999999e-08, 0.0, 0.0, 0.0, 8.999999999999999e-08)"
1970/01/01/01:00:10.783000,8,10,783000000,base_link,0.000436837329303,-1.09151900041e-05,-0.680199405965,-0.733027077216,"(1.0, 0.0, 0.0, 0.0, 1.0, 0.0, 0.0, 0.0, 1.0)",-0.00146926823072,-0.00626632478088,0.170049801469,"(1.2184696791468346e-07, 0.0, 0.0, 0.0, 1.2184696791468346e-07, 0.0, 0.0, 0.0, 1.2184696791468346e-07)",0.177418276668,0.126415386796,10.1860275269,"(8.999999999999999e-08, 0.0, 0.0, 0.0, 8.999999999999999e-08, 0.0, 0.0, 0.0, 8.999999999999999e-08)"
1970/01/01/01:00:10.803000,9,10,803000000,base_link,0.000451470394065,6.36567642989e-06,-0.681317509173,-0.731987957202,"(1.0, 0.0, 0.0, 0.0, 1.0, 0.0, 0.0, 0.0, 1.0)",-0.00196968438104,0.000704208796378,0.153694882989,"(1.2184696791468346e-07, 0.0, 0.0, 0.0, 1.2184696791468346e-07, 0.0, 0.0, 0.0, 1.2184696791468346e-07)",-0.0146384369582,0.061501134187,10.1326694489,"(8.999999999999999e-08, 0.0, 0.0, 0.0, 8.999999999999999e-08, 0.0, 0.0, 0.0, 8.999999999999999e-08)"
1970/01/01/01:00:10.823000,10,10,823000000,base_link,0.000528545517201,6.37767428765e-06,-0.682381316703,-0.730996305077,"(1.0, 0.0, 0.0, 0.0, 1.0, 0.0, 0.0, 0.0, 1.0)",-0.00612831581384,0.006011901889,0.145159602165,"(1.2184696791468346e-07, 0.0, 0.0, 0.0, 1.2184696791468346e-07, 0.0, 0.0, 0.0, 1.2184696791468346e-07)",0.0103049213067,-0.34454792738,10.1456804276,"(8.999999999999999e-08, 0.0, 0.0, 0.0, 8.999999999999999e-08, 0.0, 0.0, 0.0, 8.999999999999999e-08)"
1970/01/01/01:00:10.845000,11,10,845000000,base_link,0.000516551898827,6.59042943858e-05,-0.683338466364,-0.730101532752,"(1.0, 0.0, 0.0, 0.0, 1.0, 0.0, 0.0, 0.0, 1.0)",-0.00220304308459,-0.0065016685985,0.132624804974,"(1.2184696791468346e-07, 0.0, 0.0, 0.0, 1.2184696791468346e-07, 0.0, 0.0, 0.0, 1.2184696791468346e-07)",0.0890274941921,-0.113322816789,10.2468500137,"(8.999999999999999e-08, 0.0, 0.0, 0.0, 8.999999999999999e-08, 0.0, 0.0, 0.0, 8.999999999999999e-08)"
1970/01/01/01:00:10.862000,12,10,863000000,base_link,0.000585916309534,9.68837509255e-05,-0.684240145504,-0.729256583269,"(1.0, 0.0, 0.0, 0.0, 1.0, 0.0, 0.0, 0.0, 1.0)",-0.00639068987221,0.00197828002274,0.124191701412,"(1.2184696791468346e-07, 0.0, 0.0, 0.0, 1.2184696791468346e-07, 0.0, 0.0, 0.0, 1.2184696791468346e-07)",-0.0387069582939,-0.0903749465942,10.1026334763,"(8.999999999999999e-08, 0.0, 0.0, 0.0, 8.999999999999999e-08, 0.0, 0.0, 0.0, 8.999999999999999e-08)"
1970/01/01/01:00:10.884000,13,10,883000000,base_link,0.000639315687474,0.000119777042349,-0.684910231663,-0.72862729526,"(1.0, 0.0, 0.0, 0.0, 1.0, 0.0, 0.0, 0.0, 1.0)",-0.00819637533277,0.000891907024197,0.0898251160979,"(1.2184696791468346e-07, 0.0, 0.0, 0.0, 1.2184696791468346e-07, 0.0, 0.0, 0.0, 1.2184696791468346e-07)",0.031778819859,0.0499538369477,10.3297204971,"(8.999999999999999e-08, 0.0, 0.0, 0.0, 8.999999999999999e-08, 0.0, 0.0, 0.0, 8.999999999999999e-08)"
1970/01/01/01:00:10.903000,14,10,903000000,base_link,0.000600005025523,0.00014968056064,-0.685423963551,-0.72814407769,"(1.0, 0.0, 0.0, 0.0, 1.0, 0.0, 0.0, 0.0, 1.0)",0.00208870926872,-0.00459316326305,0.0718642771244,"(1.2184696791468346e-07, 0.0, 0.0, 0.0, 1.2184696791468346e-07, 0.0, 0.0, 0.0, 1.2184696791468346e-07)",-0.110109835863,0.0428482294083,10.1589660645,"(8.999999999999999e-08, 0.0, 0.0, 0.0, 8.999999999999999e-08, 0.0, 0.0, 0.0, 8.999999999999999e-08)"
1970/01/01/01:00:10.922000,15,10,923000000,base_link,0.000650052226701,0.000118664719516,-0.685739723789,-0.727846693478,"(1.0, 0.0, 0.0, 0.0, 1.0, 0.0, 0.0, 0.0, 1.0)",-0.0042134784162,0.00593199441209,0.0381870605052,"(1.2184696791468346e-07, 0.0, 0.0, 0.0, 1.2184696791468346e-07, 0.0, 0.0, 0.0, 1.2184696791468346e-07)",0.0180015098304,-0.0608503930271,10.0778312683,"(8.999999999999999e-08, 0.0, 0.0, 0.0, 8.999999999999999e-08, 0.0, 0.0, 0.0, 8.999999999999999e-08)"
1970/01/01/01:00:10.945000,16,10,945000000,base_link,0.000683550286711,0.000164703689546,-0.685930917699,-0.727666457749,"(1.0, 0.0, 0.0, 0.0, 1.0, 0.0, 0.0, 0.0, 1.0)",-0.00113369280007,-0.00385933183134,0.0199737194926,"(1.2184696791468346e-07, 0.0, 0.0, 0.0, 1.2184696791468346e-07, 0.0, 0.0, 0.0, 1.2184696791468346e-07)",-0.164585590363,-0.0535434186459,10.3094186783,"(8.999999999999999e-08, 0.0, 0.0, 0.0, 8.999999999999999e-08, 0.0, 0.0, 0.0, 8.999999999999999e-08)"
1970/01/01/01:00:10.963000,17,10,963000000,base_link,0.000803807901915,2.91547531852e-05,-0.686063198217,-0.727541510783,"(1.0, 0.0, 0.0, 0.0, 1.0, 0.0, 0.0, 0.0, 1.0)",-0.00265119271353,0.0209492594004,0.0185803920031,"(1.2184696791468346e-07, 0.0, 0.0, 0.0, 1.2184696791468346e-07, 0.0, 0.0, 0.0, 1.2184696791468346e-07)",-0.192914068699,-0.0186181850731,10.1688375473,"(8.999999999999999e-08, 0.0, 0.0, 0.0, 8.999999999999999e-08, 0.0, 0.0, 0.0, 8.999999999999999e-08)"
1970/01/01/01:00:10.985000,18,10,984000000,base_link,0.000871425358679,1.94206421766e-05,-0.686096847207,-0.727509800547,"(1.0, 0.0, 0.0, 0.0, 1.0, 0.0, 0.0, 0.0, 1.0)",-0.0053532756865,0.00356937432662,-0.00311583839357,"(1.2184696791468346e-07, 0.0, 0.0, 0.0, 1.2184696791468346e-07, 0.0, 0.0, 0.0, 1.2184696791468346e-07)",-0.061185374856,0.0791073217988,10.0226125717,"(8.999999999999999e-08, 0.0, 0.0, 0.0, 8.999999999999999e-08, 0.0, 0.0, 0.0, 8.999999999999999e-08)"
1970/01/01/01:00:11.003000,19,11,0,base_link,0.000877208079163,3.90657245533e-05,-0.686110789911,-0.727496616486,"(1.0, 0.0, 0.0, 0.0, 1.0, 0.0, 0.0, 0.0, 1.0)",-0.000559060892556,-0.00470797810704,0.00202764826827,"(1.2184696791468346e-07, 0.0, 0.0, 0.0, 1.2184696791468346e-07, 0.0, 0.0, 0.0, 1.2184696791468346e-07)",-0.0470853149891,0.121927388012,10.1975603104,"(8.999999999999999e-08, 0.0, 0.0, 0.0, 8.999999999999999e-08, 0.0, 0.0, 0.0, 8.999999999999999e-08)"
1970/01/01/01:00:11.026000,20,11,24000000,base_link,0.000838951500015,3.02970397934e-05,-0.686159685524,-0.727450502566,"(1.0, 0.0, 0.0, 0.0, 1.0, 0.0, 0.0, 0.0, 1.0)",0.00496642803773,-0.00720922276378,0.00364294345491,"(1.2184696791468346e-07, 0.0, 0.0, 0.0, 1.2184696791468346e-07, 0.0, 0.0, 0.0, 1.2184696791468346e-07)",-0.224131062627,-0.122217297554,10.2397346497,"(8.999999999999999e-08, 0.0, 0.0, 0.0, 8.999999999999999e-08, 0.0, 0.0, 0.0, 8.999999999999999e-08)"
1970/01/01/01:00:11.044000,21,11,44000000,base_link,0.000862447956469,6.92773593557e-05,-0.686280106973,-0.727336908906,"(1.0, 0.0, 0.0, 0.0, 1.0, 0.0, 0.0, 0.0, 1.0)",-0.00542021822184,-0.00127919088118,0.0129844909534,"(1.2184696791468346e-07, 0.0, 0.0, 0.0, 1.2184696791468346e-07, 0.0, 0.0, 0.0, 1.2184696791468346e-07)",-0.182991564274,-0.220179542899,10.0138111115,"(8.999999999999999e-08, 0.0, 0.0, 0.0, 8.999999999999999e-08, 0.0, 0.0, 0.0, 8.999999999999999e-08)"
1970/01/01/01:00:11.065000,22,11,63000000,base_link,0.000878043648666,2.47431635263e-05,-0.686445805991,-0.727180482195,"(1.0, 0.0, 0.0, 0.0, 1.0, 0.0, 0.0, 0.0, 1.0)",0.00341876479797,0.0059050549753,0.0265278555453,"(1.2184696791468346e-07, 0.0, 0.0, 0.0, 1.2184696791468346e-07, 0.0, 0.0, 0.0, 1.2184696791468346e-07)",0.0166261512786,-0.122476756573,10.0736255646,"(8.999999999999999e-08, 0.0, 0.0, 0.0, 8.999999999999999e-08, 0.0, 0.0, 0.0, 8.999999999999999e-08)"
1970/01/01/01:00:11.082000,23,11,82000000,base_link,0.000884326492545,4.79250826601e-05,-0.686654726602,-0.726983194115,"(1.0, 0.0, 0.0, 0.0, 1.0, 0.0, 0.0, 0.0, 1.0)",-0.00182124623097,0.00052186078392,0.030198469758,"(1.2184696791468346e-07, 0.0, 0.0, 0.0, 1.2184696791468346e-07, 0.0, 0.0, 0.0, 1.2184696791468346e-07)",-0.0418849848211,-0.151034325361,10.1798143387,"(8.999999999999999e-08, 0.0, 0.0, 0.0, 8.999999999999999e-08, 0.0, 0.0, 0.0, 8.999999999999999e-08)"
1970/01/01/01:00:11.103000,24,11,103000000,base_link,0.000914928561922,3.22901659058e-05,-0.686968914235,-0.726686286689,"(1.0, 0.0, 0.0, 0.0, 1.0, 0.0, 0.0, 0.0, 1.0)",-0.000847917573992,0.00289046089165,0.0524683482945,"(1.2184696791468346e-07, 0.0, 0.0, 0.0, 1.2184696791468346e-07, 0.0, 0.0, 0.0, 1.2184696791468346e-07)",-0.0390809699893,-0.0629753768444,10.0306835175,"(8.999999999999999e-08, 0.0, 0.0, 0.0, 8.999999999999999e-08, 0.0, 0.0, 0.0, 8.999999999999999e-08)"
1970/01/01/01:00:11.123000,25,11,123000000,base_link,0.000914255776389,5.43542057374e-05,-0.687419216433,-0.72626034537,"(1.0, 0.0, 0.0, 0.0, 1.0, 0.0, 0.0, 0.0, 1.0)",0.00372292893007,-0.000906847068109,0.0637070536613,"(1.2184696791468346e-07, 0.0, 0.0, 0.0, 1.2184696791468346e-07, 0.0, 0.0, 0.0, 1.2184696791468346e-07)",0.0249654073268,-0.0400626137853,9.82223129272,"(8.999999999999999e-08, 0.0, 0.0, 0.0, 8.999999999999999e-08, 0.0, 0.0, 0.0, 8.999999999999999e-08)"
1970/01/01/01:00:11.144000,26,11,144000000,base_link,0.000987341622112,0.000105289083753,-0.688038767204,-0.725673331966,"(1.0, 0.0, 0.0, 0.0, 1.0, 0.0, 0.0, 0.0, 1.0)",-0.015757156536,-0.00338576151989,0.0758435130119,"(1.2184696791468346e-07, 0.0, 0.0, 0.0, 1.2184696791468346e-07, 0.0, 0.0, 0.0, 1.2184696791468346e-07)",0.0102508431301,-0.151960268617,9.34493541718,"(8.999999999999999e-08, 0.0, 0.0, 0.0, 8.999999999999999e-08, 0.0, 0.0, 0.0, 8.999999999999999e-08)"
1970/01/01/01:00:11.163000,27,11,163000000,base_link,0.000964395873502,0.000147383166385,-0.688449338094,-0.725283750206,"(1.0, 0.0, 0.0, 0.0, 1.0, 0.0, 0.0, 0.0, 1.0)",-0.00346919498406,-0.00631749816239,0.068801343441,"(1.2184696791468346e-07, 0.0, 0.0, 0.0, 1.2184696791468346e-07, 0.0, 0.0, 0.0, 1.2184696791468346e-07)",-0.0258627198637,-0.102453514934,9.43863296509,"(8.999999999999999e-08, 0.0, 0.0, 0.0, 8.999999999999999e-08, 0.0, 0.0, 0.0, 8.999999999999999e-08)"
1970/01/01/01:00:11.183000,28,11,183000000,base_link,0.00102668578751,0.000160014461639,-0.68903367649,-0.724728577429,"(1.0, 0.0, 0.0, 0.0, 1.0, 0.0, 0.0, 0.0, 1.0)",-0.00728493463248,0.00273497914895,0.0803471878171,"(1.2184696791468346e-07, 0.0, 0.0, 0.0, 1.2184696791468346e-07, 0.0, 0.0, 0.0, 1.2184696791468346e-07)",-0.155242606997,-0.186986014247,9.25644779205,"(8.999999999999999e-08, 0.0, 0.0, 0.0, 8.999999999999999e-08, 0.0, 0.0, 0.0, 8.999999999999999e-08)"
1970/01/01/01:00:11.203000,29,11,203000000,base_link,0.000977455428481,0.000147942064877,-0.689558093921,-0.724229616695,"(1.0, 0.0, 0.0, 0.0, 1.0, 0.0, 0.0, 0.0, 1.0)",0.00365062570199,-0.00734146917239,0.0698051080108,"(1.2184696791468346e-07, 0.0, 0.0, 0.0, 1.2184696791468346e-07, 0.0, 0.0, 0.0, 1.2184696791468346e-07)",-0.0140964547172,-0.10268432647,9.12729454041,"(8.999999999999999e-08, 0.0, 0.0, 0.0, 8.999999999999999e-08, 0.0, 0.0, 0.0, 8.999999999999999e-08)"
1970/01/01/01:00:11.224000,30,11,223000000,base_link,0.00095428696835,0.000114800771354,-0.690063302926,-0.723748431394,"(1.0, 0.0, 0.0, 0.0, 1.0, 0.0, 0.0, 0.0, 1.0)",0.001458712155,0.00553684169427,0.067113161087,"(1.2184696791468346e-07, 0.0, 0.0, 0.0, 1.2184696791468346e-07, 0.0, 0.0, 0.0, 1.2184696791468346e-07)",-0.129057660699,0.0439521037042,9.3163690567,"(8.999999999999999e-08, 0.0, 0.0, 0.0, 8.999999999999999e-08, 0.0, 0.0, 0.0, 8.999999999999999e-08)"
1970/01/01/01:00:11.245000,31,11,245000000,base_link,0.000890650948204,1.47802083097e-07,-0.690544809596,-0.723289009672,"(1.0, 0.0, 0.0, 0.0, 1.0, 0.0, 0.0, 0.0, 1.0)",0.00985386967659,0.00182368210517,0.0449768491089,"(1.2184696791468346e-07, 0.0, 0.0, 0.0, 1.2184696791468346e-07, 0.0, 0.0, 0.0, 1.2184696791468346e-07)",-0.113858066499,-0.0946997255087,9.30448722839,"(8.999999999999999e-08, 0.0, 0.0, 0.0, 8.999999999999999e-08, 0.0, 0.0, 0.0, 8.999999999999999e-08)"
1970/01/01/01:00:11.260000,32,11,260000000,base_link,0.000829568269752,6.13405397865e-05,-0.690815639977,-0.723030570465,"(1.0, 0.0, 0.0, 0.0, 1.0, 0.0, 0.0, 0.0, 1.0)",0.00374343222938,-0.0108976103365,0.0432648807764,"(1.2184696791468346e-07, 0.0, 0.0, 0.0, 1.2184696791468346e-07, 0.0, 0.0, 0.0, 1.2184696791468346e-07)",0.0442441254854,0.00904796458781,9.36120986938,"(8.999999999999999e-08, 0.0, 0.0, 0.0, 8.999999999999999e-08, 0.0, 0.0, 0.0, 8.999999999999999e-08)"
1970/01/01/01:00:11.284000,33,11,283000000,base_link,0.000795667345139,-1.86997417354e-05,-0.691232391966,-0.722632194502,"(1.0, 0.0, 0.0, 0.0, 1.0, 0.0, 0.0, 0.0, 1.0)",0.0107811242342,0.00959664303809,0.0449053645134,"(1.2184696791468346e-07, 0.0, 0.0, 0.0, 1.2184696791468346e-07, 0.0, 0.0, 0.0, 1.2184696791468346e-07)",-0.00109211413655,-0.0357543304563,9.30870246887,"(8.999999999999999e-08, 0.0, 0.0, 0.0, 8.999999999999999e-08, 0.0, 0.0, 0.0, 8.999999999999999e-08)"
1970/01/01/01:00:11.303000,34,11,303000000,base_link,0.000769725177858,3.53761877883e-05,-0.691552278644,-0.722325963403,"(1.0, 0.0, 0.0, 0.0, 1.0, 0.0, 0.0, 0.0, 1.0)",-0.00279629556462,-0.00680248625576,0.0528062842786,"(1.2184696791468346e-07, 0.0, 0.0, 0.0, 1.2184696791468346e-07, 0.0, 0.0, 0.0, 1.2184696791468346e-07)",-0.13621366024,-0.114711411297,9.40244293213,"(8.999999999999999e-08, 0.0, 0.0, 0.0, 8.999999999999999e-08, 0.0, 0.0, 0.0, 8.999999999999999e-08)"
1970/01/01/01:00:11.323000,35,11,323000000,base_link,0.000756903069334,4.38090148491e-05,-0.691849193972,-0.722041776423,"(1.0, 0.0, 0.0, 0.0, 1.0, 0.0, 0.0, 0.0, 1.0)",6.2515377067e-05,-0.00182774139103,0.0397343337536,"(1.2184696791468346e-07, 0.0, 0.0, 0.0, 1.2184696791468346e-07, 0.0, 0.0, 0.0, 1.2184696791468346e-07)",-0.254726320505,-0.192992553115,9.32723617554,"(8.999999999999999e-08, 0.0, 0.0, 0.0, 8.999999999999999e-08, 0.0, 0.0, 0.0, 8.999999999999999e-08)"
1970/01/01/01:00:11.344000,36,11,344000000,base_link,0.000753968615586,7.88375528757e-05,-0.692120680262,-0.7217814169,"(1.0, 0.0, 0.0, 0.0, 1.0, 0.0, 0.0, 0.0, 1.0)",-0.00721042696387,-0.00456952489913,0.0305667184293,"(1.2184696791468346e-07, 0.0, 0.0, 0.0, 1.2184696791468346e-07, 0.0, 0.0, 0.0, 1.2184696791468346e-07)",-0.101421378553,-0.0839346572757,9.35493659973,"(8.999999999999999e-08, 0.0, 0.0, 0.0, 8.999999999999999e-08, 0.0, 0.0, 0.0, 8.999999999999999e-08)"
1970/01/01/01:00:11.363000,37,11,362000000,base_link,0.000740435546526,0.000110409884688,-0.692364890956,-0.721547152863,"(1.0, 0.0, 0.0, 0.0, 1.0, 0.0, 0.0, 0.0, 1.0)",0.000472830375656,-0.00655474886298,0.0336930602789,"(1.2184696791468346e-07, 0.0, 0.0, 0.0, 1.2184696791468346e-07, 0.0, 0.0, 0.0, 1.2184696791468346e-07)",-0.207339763641,-0.0615442357957,9.53735923767,"(8.999999999999999e-08, 0.0, 0.0, 0.0, 8.999999999999999e-08, 0.0, 0.0, 0.0, 8.999999999999999e-08)"
1970/01/01/01:00:11.382000,38,11,382000000,base_link,0.000678889582012,8.60359588358e-05,-0.692648211292,-0.721275212176,"(1.0, 0.0, 0.0, 0.0, 1.0, 0.0, 0.0, 0.0, 1.0)",0.00701876403764,-0.00336796673946,0.0364334136248,"(1.2184696791468346e-07, 0.0, 0.0, 0.0, 1.2184696791468346e-07, 0.0, 0.0, 0.0, 1.2184696791468346e-07)",0.0954228267074,-0.12831170857,9.30197906494,"(8.999999999999999e-08, 0.0, 0.0, 0.0, 8.999999999999999e-08, 0.0, 0.0, 0.0, 8.999999999999999e-08)"
1970/01/01/01:00:11.403000,39,11,402000000,base_link,0.000654921587111,-1.41446922712e-05,-0.692984657729,-0.720952084143,"(1.0, 0.0, 0.0, 0.0, 1.0, 0.0, 0.0, 0.0, 1.0)",0.00957853998989,0.00679651461542,0.0474000424147,"(1.2184696791468346e-07, 0.0, 0.0, 0.0, 1.2184696791468346e-07, 0.0, 0.0, 0.0, 1.2184696791468346e-07)",-0.0309432055801,-0.183398991823,9.3424282074,"(8.999999999999999e-08, 0.0, 0.0, 0.0, 8.999999999999999e-08, 0.0, 0.0, 0.0, 8.999999999999999e-08)"
1970/01/01/01:00:11.423000,40,11,423000000,base_link,0.000589933019443,-3.0471842201e-05,-0.693317022508,-0.720632532006,"(1.0, 0.0, 0.0, 0.0, 1.0, 0.0, 0.0, 0.0, 1.0)",0.00806186441332,-0.00539941713214,0.0337150655687,"(1.2184696791468346e-07, 0.0, 0.0, 0.0, 1.2184696791468346e-07, 0.0, 0.0, 0.0, 1.2184696791468346e-07)",-0.134978666902,-0.164645344019,9.32781028748,"(8.999999999999999e-08, 0.0, 0.0, 0.0, 8.999999999999999e-08, 0.0, 0.0, 0.0, 8.999999999999999e-08)"
1970/01/01/01:00:11.443000,41,11,443000000,base_link,0.000633731415262,-3.6662119417e-05,-0.693606404087,-0.72035394002,"(1.0, 0.0, 0.0, 0.0, 1.0, 0.0, 0.0, 0.0, 1.0)",-0.00506580760702,-0.00184828112833,0.0416464284062,"(1.2184696791468346e-07, 0.0, 0.0, 0.0, 1.2184696791468346e-07, 0.0, 0.0, 0.0, 1.2184696791468346e-07)",-0.205834105611,-0.0173733085394,9.48105621338,"(8.999999999999999e-08, 0.0, 0.0, 0.0, 8.999999999999999e-08, 0.0, 0.0, 0.0, 8.999999999999999e-08)"
1970/01/01/01:00:11.463000,42,11,463000000,base_link,0.000546920925767,-7.19490332654e-05,-0.694003611793,-0.719971315124,"(1.0, 0.0, 0.0, 0.0, 1.0, 0.0, 0.0, 0.0, 1.0)",0.014646615833,-0.0024852422066,0.0524626784027,"(1.2184696791468346e-07, 0.0, 0.0, 0.0, 1.2184696791468346e-07, 0.0, 0.0, 0.0, 1.2184696791468346e-07)",-0.190401941538,0.0398031845689,9.31112289429,"(8.999999999999999e-08, 0.0, 0.0, 0.0, 8.999999999999999e-08, 0.0, 0.0, 0.0, 8.999999999999999e-08)"
1970/01/01/01:00:11.483000,43,11,483000000,base_link,0.000515186098097,-5.91255047542e-05,-0.694354834652,-0.719632567732,"(1.0, 0.0, 0.0, 0.0, 1.0, 0.0, 0.0, 0.0, 1.0)",0.00665604090318,-0.000691857829224,0.038791347295,"(1.2184696791468346e-07, 0.0, 0.0, 0.0, 1.2184696791468346e-07, 0.0, 0.0, 0.0, 1.2184696791468346e-07)",0.00205872906372,-0.0734681710601,9.33082103729,"(8.999999999999999e-08, 0.0, 0.0, 0.0, 8.999999999999999e-08, 0.0, 0.0, 0.0, 8.999999999999999e-08)"
1970/01/01/01:00:11.503000,44,11,503000000,base_link,0.0004559969409,-7.13127763731e-05,-0.694747291618,-0.719253934933,"(1.0, 0.0, 0.0, 0.0, 1.0, 0.0, 0.0, 0.0, 1.0)",0.000845792295877,-0.000229024328291,0.0501968599856,"(1.2184696791468346e-07, 0.0, 0.0, 0.0, 1.2184696791468346e-07, 0.0, 0.0, 0.0, 1.2184696791468346e-07)",0.01390882954,-0.0539929382503,9.37632465363,"(8.999999999999999e-08, 0.0, 0.0, 0.0, 8.999999999999999e-08, 0.0, 0.0, 0.0, 8.999999999999999e-08)"
1970/01/01/01:00:11.523000,45,11,523000000,base_link,0.000444316038559,-0.00011394140164,-0.695114493401,-0.718899040029,"(1.0, 0.0, 0.0, 0.0, 1.0, 0.0, 0.0, 0.0, 1.0)",0.00739986216649,-0.000952444621362,0.0503813661635,"(1.2184696791468346e-07, 0.0, 0.0, 0.0, 1.2184696791468346e-07, 0.0, 0.0, 0.0, 1.2184696791468346e-07)",0.117779716849,-0.221374854445,9.32840919495,"(8.999999999999999e-08, 0.0, 0.0, 0.0, 8.999999999999999e-08, 0.0, 0.0, 0.0, 8.999999999999999e-08)"
1970/01/01/01:00:11.546000,46,11,543000000,base_link,0.000354567298395,-0.000188979327631,-0.695561774197,-0.718466342043,"(1.0, 0.0, 0.0, 0.0, 1.0, 0.0, 0.0, 0.0, 1.0)",0.00651399698108,-0.00151448417455,0.042896412313,"(1.2184696791468346e-07, 0.0, 0.0, 0.0, 1.2184696791468346e-07, 0.0, 0.0, 0.0, 1.2184696791468346e-07)",0.117129094899,-0.0577472113073,9.41044235229,"(8.999999999999999e-08, 0.0, 0.0, 0.0, 8.999999999999999e-08, 0.0, 0.0, 0.0, 8.999999999999999e-08)"
1970/01/01/01:00:11.563000,47,11,562000000,base_link,0.000317749839647,-0.000221612929642,-0.69583071192,-0.718205833689,"(1.0, 0.0, 0.0, 0.0, 1.0, 0.0, 0.0, 0.0, 1.0)",0.00572288688272,0.000433140376117,0.0423528440297,"(1.2184696791468346e-07, 0.0, 0.0, 0.0, 1.2184696791468346e-07, 0.0, 0.0, 0.0, 1.2184696791468346e-07)",-0.193470835686,-0.147692173719,9.32870769501,"(8.999999999999999e-08, 0.0, 0.0, 0.0, 8.999999999999999e-08, 0.0, 0.0, 0.0, 8.999999999999999e-08)"
1970/01/01/01:00:11.583000,48,11,583000000,base_link,0.000302624152723,-0.000159748548569,-0.696188043438,-0.717859376058,"(1.0, 0.0, 0.0, 0.0, 1.0, 0.0, 0.0, 0.0, 1.0)",-0.00549165904522,-0.00386039423756,0.0444151051342,"(1.2184696791468346e-07, 0.0, 0.0, 0.0, 1.2184696791468346e-07, 0.0, 0.0, 0.0, 1.2184696791468346e-07)",-0.117278389633,0.149018630385,9.40416812897,"(8.999999999999999e-08, 0.0, 0.0, 0.0, 8.999999999999999e-08, 0.0, 0.0, 0.0, 8.999999999999999e-08)"
1970/01/01/01:00:11.603000,49,11,603000000,base_link,0.000317415484253,-0.000157674040761,-0.696448036152,-0.717607138365,"(1.0, 0.0, 0.0, 0.0, 1.0, 0.0, 0.0, 0.0, 1.0)",-0.000940183352213,0.00132156116888,0.0313779525459,"(1.2184696791468346e-07, 0.0, 0.0, 0.0, 1.2184696791468346e-07, 0.0, 0.0, 0.0, 1.2184696791468346e-07)",-0.00528069958091,-0.20403534174,9.43497753143,"(8.999999999999999e-08, 0.0, 0.0, 0.0, 8.999999999999999e-08, 0.0, 0.0, 0.0, 8.999999999999999e-08)"
1970/01/01/01:00:11.623000,50,11,623000000,base_link,0.000207740277991,-7.45796047371e-05,-0.696711748324,-0.717351265506,"(1.0, 0.0, 0.0, 0.0, 1.0, 0.0, 0.0, 0.0, 1.0)",0.00446323724464,-0.0140337981284,0.0254200939089,"(1.2184696791468346e-07, 0.0, 0.0, 0.0, 1.2184696791468346e-07, 0.0, 0.0, 0.0, 1.2184696791468346e-07)",-0.136647120118,0.0230330303311,9.37360668182,"(8.999999999999999e-08, 0.0, 0.0, 0.0, 8.999999999999999e-08, 0.0, 0.0, 0.0, 8.999999999999999e-08)"
1970/01/01/01:00:11.646000,51,11,643000000,base_link,0.000248523280826,-9.31840427346e-05,-0.696937717994,-0.717131617863,"(1.0, 0.0, 0.0, 0.0, 1.0, 0.0, 0.0, 0.0, 1.0)",0.00230522826314,0.00849884934723,0.0320969298482,"(1.2184696791468346e-07, 0.0, 0.0, 0.0, 1.2184696791468346e-07, 0.0, 0.0, 0.0, 1.2184696791468346e-07)",0.0356705486774,-0.00569733418524,9.44439315796,"(8.999999999999999e-08, 0.0, 0.0, 0.0, 8.999999999999999e-08, 0.0, 0.0, 0.0, 8.999999999999999e-08)"
1970/01/01/01:00:11.663000,52,11,663000000,base_link,0.000209528023108,-0.000203592422546,-0.697060695913,-0.71701218028,"(1.0, 0.0, 0.0, 0.0, 1.0, 0.0, 0.0, 0.0, 1.0)",0.0099112726748,0.00849496480078,0.00642395578325,"(1.2184696791468346e-07, 0.0, 0.0, 0.0, 1.2184696791468346e-07, 0.0, 0.0, 0.0, 1.2184696791468346e-07)",-0.00862558186054,-0.00317774387076,9.33795166016,"(8.999999999999999e-08, 0.0, 0.0, 0.0, 8.999999999999999e-08, 0.0, 0.0, 0.0, 8.999999999999999e-08)"
1970/01/01/01:00:11.683000,53,11,683000000,base_link,0.000178570701124,-0.000218157090001,-0.697230337636,-0.716847259003,"(1.0, 0.0, 0.0, 0.0, 1.0, 0.0, 0.0, 0.0, 1.0)",0.0051790215075,-0.00566011946648,0.0222624260932,"(1.2184696791468346e-07, 0.0, 0.0, 0.0, 1.2184696791468346e-07, 0.0, 0.0, 0.0, 1.2184696791468346e-07)",-0.120837166905,-0.135002031922,9.42471504211,"(8.999999999999999e-08, 0.0, 0.0, 0.0, 8.999999999999999e-08, 0.0, 0.0, 0.0, 8.999999999999999e-08)"
1970/01/01/01:00:11.703000,54,11,704000000,base_link,0.00013968878123,-0.000197640332646,-0.697362765669,-0.716718371307,"(1.0, 0.0, 0.0, 0.0, 1.0, 0.0, 0.0, 0.0, 1.0)",-0.00309591251425,-0.00258031464182,0.0167659372091,"(1.2184696791468346e-07, 0.0, 0.0, 0.0, 1.2184696791468346e-07, 0.0, 0.0, 0.0, 1.2184696791468346e-07)",-0.16889756918,0.0588667020202,9.3399515152,"(8.999999999999999e-08, 0.0, 0.0, 0.0, 8.999999999999999e-08, 0.0, 0.0, 0.0, 8.999999999999999e-08)"
1970/01/01/01:00:11.723000,55,11,723000000,base_link,8.27243237208e-05,-0.000220077939567,-0.697514224978,-0.716570958094,"(1.0, 0.0, 0.0, 0.0, 1.0, 0.0, 0.0, 0.0, 1.0)",0.00714013073593,-0.00225063529797,0.0207311045378,"(1.2184696791468346e-07, 0.0, 0.0, 0.0, 1.2184696791468346e-07, 0.0, 0.0, 0.0, 1.2184696791468346e-07)",-0.0652332082391,0.0164876803756,9.5955953598,"(8.999999999999999e-08, 0.0, 0.0, 0.0, 8.999999999999999e-08, 0.0, 0.0, 0.0, 8.999999999999999e-08)"
1970/01/01/01:00:11.745000,56,11,745000000,base_link,3.36664107402e-05,-0.000256596053822,-0.697649669803,-0.716439137898,"(1.0, 0.0, 0.0, 0.0, 1.0, 0.0, 0.0, 0.0, 1.0)",0.00926237180829,-0.00110791658517,0.0191464144737,"(1.2184696791468346e-07, 0.0, 0.0, 0.0, 1.2184696791468346e-07, 0.0, 0.0, 0.0, 1.2184696791468346e-07)",0.0757536664605,-0.0544811673462,9.57377624512,"(8.999999999999999e-08, 0.0, 0.0, 0.0, 8.999999999999999e-08, 0.0, 0.0, 0.0, 8.999999999999999e-08)"
1970/01/01/01:00:11.764000,57,11,763000000,base_link,7.35385333331e-05,-0.000187082019744,-0.697819849558,-0.716273257122,"(1.0, 0.0, 0.0, 0.0, 1.0, 0.0, 0.0, 0.0, 1.0)",-0.00431457022205,-0.00230440730229,0.0212226510048,"(1.2184696791468346e-07, 0.0, 0.0, 0.0, 1.2184696791468346e-07, 0.0, 0.0, 0.0, 1.2184696791468346e-07)",-0.0918578580022,-0.0608485899866,9.69434452057,"(8.999999999999999e-08, 0.0, 0.0, 0.0, 8.999999999999999e-08, 0.0, 0.0, 0.0, 8.999999999999999e-08)"
1970/01/01/01:00:11.783000,58,11,783000000,base_link,4.27429341891e-06,-0.000210122814848,-0.698015981893,-0.716082182409,"(1.0, 0.0, 0.0, 0.0, 1.0, 0.0, 0.0, 0.0, 1.0)",0.00567008927464,-0.00534424278885,0.028714498505,"(1.2184696791468346e-07, 0.0, 0.0, 0.0, 1.2184696791468346e-07, 0.0, 0.0, 0.0, 1.2184696791468346e-07)",-0.185477524996,-0.00747231626883,9.67352962494,"(8.999999999999999e-08, 0.0, 0.0, 0.0, 8.999999999999999e-08, 0.0, 0.0, 0.0, 8.999999999999999e-08)"
1970/01/01/01:00:11.804000,59,11,804000000,base_link,-7.51545140926e-05,-0.000219151043317,-0.698133720431,-0.71596739415,"(1.0, 0.0, 0.0, 0.0, 1.0, 0.0, 0.0, 0.0, 1.0)",0.00604747561738,-0.0048423204571,0.0206222776324,"(1.2184696791468346e-07, 0.0, 0.0, 0.0, 1.2184696791468346e-07, 0.0, 0.0, 0.0, 1.2184696791468346e-07)",-0.0404937267303,0.155223354697,9.70255279541,"(8.999999999999999e-08, 0.0, 0.0, 0.0, 8.999999999999999e-08, 0.0, 0.0, 0.0, 8.999999999999999e-08)"
1970/01/01/01:00:11.823000,60,11,823000000,base_link,-3.40185879951e-05,-0.000356207722474,-0.698289238351,-0.715815669447,"(1.0, 0.0, 0.0, 0.0, 1.0, 0.0, 0.0, 0.0, 1.0)",0.00590299954638,0.00993865635246,0.0200256183743,"(1.2184696791468346e-07, 0.0, 0.0, 0.0, 1.2184696791468346e-07, 0.0, 0.0, 0.0, 1.2184696791468346e-07)",0.0436759144068,0.0170011986047,9.82784557343,"(8.999999999999999e-08, 0.0, 0.0, 0.0, 8.999999999999999e-08, 0.0, 0.0, 0.0, 8.999999999999999e-08)"
1970/01/01/01:00:11.844000,61,11,844000000,base_link,5.40653722329e-06,-0.00028330857412,-0.698455008492,-0.715653945403,"(1.0, 0.0, 0.0, 0.0, 1.0, 0.0, 0.0, 0.0, 1.0)",-0.00631691794842,-0.00554280541837,0.0267268754542,"(1.2184696791468346e-07, 0.0, 0.0, 0.0, 1.2184696791468346e-07, 0.0, 0.0, 0.0, 1.2184696791468346e-07)",-0.0316842794418,-0.0454353839159,10.0012121201,"(8.999999999999999e-08, 0.0, 0.0, 0.0, 8.999999999999999e-08, 0.0, 0.0, 0.0, 8.999999999999999e-08)"
1970/01/01/01:00:11.863000,62,11,863000000,base_link,9.70692546824e-06,-0.000197871510065,-0.698699443091,-0.715415327069,"(1.0, 0.0, 0.0, 0.0, 1.0, 0.0, 0.0, 0.0, 1.0)",-0.00735804578289,-0.000630388967693,0.0307535268366,"(1.2184696791468346e-07, 0.0, 0.0, 0.0, 1.2184696791468346e-07, 0.0, 0.0, 0.0, 1.2184696791468346e-07)",-0.334176570177,-0.0111196143553,10.0182285309,"(8.999999999999999e-08, 0.0, 0.0, 0.0, 8.999999999999999e-08, 0.0, 0.0, 0.0, 8.999999999999999e-08)"
1970/01/01/01:00:11.883000,63,11,883000000,base_link,-1.91996027413e-05,-0.000156166231082,-0.698854536908,-0.715263942175,"(1.0, 0.0, 0.0, 0.0, 1.0, 0.0, 0.0, 0.0, 1.0)",0.0016379642766,-0.00662890635431,0.0330442748964,"(1.2184696791468346e-07, 0.0, 0.0, 0.0, 1.2184696791468346e-07, 0.0, 0.0, 0.0, 1.2184696791468346e-07)",0.0098163112998,0.0667033419013,10.1174144745,"(8.999999999999999e-08, 0.0, 0.0, 0.0, 8.999999999999999e-08, 0.0, 0.0, 0.0, 8.999999999999999e-08)"
1970/01/01/01:00:11.903000,64,11,903000000,base_link,-1.45080956523e-05,-0.000117063890425,-0.699023681431,-0.715098590869,"(1.0, 0.0, 0.0, 0.0, 1.0, 0.0, 0.0, 0.0, 1.0)",-0.00308460160159,0.00328550580889,0.0292002186179,"(1.2184696791468346e-07, 0.0, 0.0, 0.0, 1.2184696791468346e-07, 0.0, 0.0, 0.0, 1.2184696791468346e-07)",-0.0241887941957,-0.271562755108,10.0341157913,"(8.999999999999999e-08, 0.0, 0.0, 0.0, 8.999999999999999e-08, 0.0, 0.0, 0.0, 8.999999999999999e-08)"
1970/01/01/01:00:11.923000,65,11,923000000,base_link,1.97722920817e-05,-9.90683308464e-05,-0.699224138428,-0.714902601438,"(1.0, 0.0, 0.0, 0.0, 1.0, 0.0, 0.0, 0.0, 1.0)",-0.00317841861397,0.000844324240461,0.030943993479,"(1.2184696791468346e-07, 0.0, 0.0, 0.0, 1.2184696791468346e-07, 0.0, 0.0, 0.0, 1.2184696791468346e-07)",-0.0915430486202,-0.0517106875777,10.2605848312,"(8.999999999999999e-08, 0.0, 0.0, 0.0, 8.999999999999999e-08, 0.0, 0.0, 0.0, 8.999999999999999e-08)"
1970/01/01/01:00:11.945000,66,11,945000000,base_link,-3.76827116305e-05,-9.00191215607e-05,-0.699388652065,-0.714741628135,"(1.0, 0.0, 0.0, 0.0, 1.0, 0.0, 0.0, 0.0, 1.0)",0.00358487293124,-0.00181734899525,0.0199603196234,"(1.2184696791468346e-07, 0.0, 0.0, 0.0, 1.2184696791468346e-07, 0.0, 0.0, 0.0, 1.2184696791468346e-07)",-0.0751617029309,-0.00307163316756,10.268652916,"(8.999999999999999e-08, 0.0, 0.0, 0.0, 8.999999999999999e-08, 0.0, 0.0, 0.0, 8.999999999999999e-08)"
1970/01/01/01:00:11.963000,67,11,963000000,base_link,3.07879847326e-07,-0.000131679503758,-0.699548084374,-0.714585651868,"(1.0, 0.0, 0.0, 0.0, 1.0, 0.0, 0.0, 0.0, 1.0)",0.00211477209814,0.00789586734027,0.026108764112,"(1.2184696791468346e-07, 0.0, 0.0, 0.0, 1.2184696791468346e-07, 0.0, 0.0, 0.0, 1.2184696791468346e-07)",0.0293663516641,0.0329178906977,10.1391210556,"(8.999999999999999e-08, 0.0, 0.0, 0.0, 8.999999999999999e-08, 0.0, 0.0, 0.0, 8.999999999999999e-08)"
1970/01/01/01:00:11.984000,68,11,984000000,base_link,3.61432789527e-05,-0.000152141654653,-0.699723788,-0.714413488578,"(1.0, 0.0, 0.0, 0.0, 1.0, 0.0, 0.0, 0.0, 1.0)",-0.00587251456454,0.0067029427737,0.0275881923735,"(1.2184696791468346e-07, 0.0, 0.0, 0.0, 1.2184696791468346e-07, 0.0, 0.0, 0.0, 1.2184696791468346e-07)",0.0107991853729,0.0994808673859,10.0816659927,"(8.999999999999999e-08, 0.0, 0.0, 0.0, 8.999999999999999e-08, 0.0, 0.0, 0.0, 8.999999999999999e-08)"
1970/01/01/01:00:12.005000,69,12,5000000,base_link,-2.61400650495e-05,-0.000183970556435,-0.699864603913,-0.71427553865,"(1.0, 0.0, 0.0, 0.0, 1.0, 0.0, 0.0, 0.0, 1.0)",0.00820165034384,-0.00136293377727,0.0200950689614,"(1.2184696791468346e-07, 0.0, 0.0, 0.0, 1.2184696791468346e-07, 0.0, 0.0, 0.0, 1.2184696791468346e-07)",-0.0915508046746,-0.144452720881,9.90612888336,"(8.999999999999999e-08, 0.0, 0.0, 0.0, 8.999999999999999e-08, 0.0, 0.0, 0.0, 8.999999999999999e-08)"
1970/01/01/01:00:12.024000,70,12,24000000,base_link,-3.45127844894e-05,-0.0001594996136,-0.700016352324,-0.714126909106,"(1.0, 0.0, 0.0, 0.0, 1.0, 0.0, 0.0, 0.0, 1.0)",-0.00391220115125,-0.00355540285818,0.0213001817465,"(1.2184696791468346e-07, 0.0, 0.0, 0.0, 1.2184696791468346e-07, 0.0, 0.0, 0.0, 1.2184696791468346e-07)",0.0882322564721,-0.0466861240566,9.82664585114,"(8.999999999999999e-08, 0.0, 0.0, 0.0, 8.999999999999999e-08, 0.0, 0.0, 0.0, 8.999999999999999e-08)"
1970/01/01/01:00:12.045000,71,12,45000000,base_link,-4.62789837788e-05,-0.000168897162061,-0.700134902189,-0.714010719464,"(1.0, 0.0, 0.0, 0.0, 1.0, 0.0, 0.0, 0.0, 1.0)",0.00255306111649,0.000455900386442,0.0167593192309,"(1.2184696791468346e-07, 0.0, 0.0, 0.0, 1.2184696791468346e-07, 0.0, 0.0, 0.0, 1.2184696791468346e-07)",-0.199495211244,-0.0360619314015,9.75925827026,"(8.999999999999999e-08, 0.0, 0.0, 0.0, 8.999999999999999e-08, 0.0, 0.0, 0.0, 8.999999999999999e-08)"
1970/01/01/01:00:12.063000,72,12,63000000,base_link,4.67265110761e-05,-0.000192429730421,-0.70025059463,-0.713897134366,"(1.0, 0.0, 0.0, 0.0, 1.0, 0.0, 0.0, 0.0, 1.0)",-0.00556391151622,0.00689809955657,0.0222611110657,"(1.2184696791468346e-07, 0.0, 0.0, 0.0, 1.2184696791468346e-07, 0.0, 0.0, 0.0, 1.2184696791468346e-07)",0.104244895279,-0.00439095962793,9.62904453278,"(8.999999999999999e-08, 0.0, 0.0, 0.0, 8.999999999999999e-08, 0.0, 0.0, 0.0, 8.999999999999999e-08)"
1970/01/01/01:00:12.083000,73,12,83000000,base_link,7.92543253725e-05,-0.000121148979633,-0.700345394088,-0.713804189369,"(1.0, 0.0, 0.0, 0.0, 1.0, 0.0, 0.0, 0.0, 1.0)",-0.00445392262191,-0.00297363940626,0.0134621281177,"(1.2184696791468346e-07, 0.0, 0.0, 0.0, 1.2184696791468346e-07, 0.0, 0.0, 0.0, 1.2184696791468346e-07)",-0.16560895741,0.0407983288169,9.81169033051,"(8.999999999999999e-08, 0.0, 0.0, 0.0, 8.999999999999999e-08, 0.0, 0.0, 0.0, 8.999999999999999e-08)"
1970/01/01/01:00:12.104000,74,12,104000000,base_link,3.49342015258e-05,-0.000135618896425,-0.700444267301,-0.713707170617,"(1.0, 0.0, 0.0, 0.0, 1.0, 0.0, 0.0, 0.0, 1.0)",0.00699832802638,-0.00120471557602,0.0139832859859,"(1.2184696791468346e-07, 0.0, 0.0, 0.0, 1.2184696791468346e-07, 0.0, 0.0, 0.0, 1.2184696791468346e-07)",0.0520344637334,0.105717748404,9.69961166382,"(8.999999999999999e-08, 0.0, 0.0, 0.0, 8.999999999999999e-08, 0.0, 0.0, 0.0, 8.999999999999999e-08)"
1970/01/01/01:00:12.124000,75,12,123000000,base_link,-1.85872438118e-05,-0.00013316468626,-0.700503776017,-0.713648757719,"(1.0, 0.0, 0.0, 0.0, 1.0, 0.0, 0.0, 0.0, 1.0)",0.00567054143175,-0.00500816106796,0.00705212820321,"(1.2184696791468346e-07, 0.0, 0.0, 0.0, 1.2184696791468346e-07, 0.0, 0.0, 0.0, 1.2184696791468346e-07)",-0.0906354635954,-0.0272859726101,9.68360710144,"(8.999999999999999e-08, 0.0, 0.0, 0.0, 8.999999999999999e-08, 0.0, 0.0, 0.0, 8.999999999999999e-08)"
1970/01/01/01:00:12.143000,76,12,143000000,base_link,-9.38520512474e-05,-0.000141306639871,-0.700579965007,-0.713574001722,"(1.0, 0.0, 0.0, 0.0, 1.0, 0.0, 0.0, 0.0, 1.0)",0.0102619864047,-0.000583640066907,0.0131472088397,"(1.2184696791468346e-07, 0.0, 0.0, 0.0, 1.2184696791468346e-07, 0.0, 0.0, 0.0, 1.2184696791468346e-07)",-0.13572768867,-0.0831382498145,9.77058982849,"(8.999999999999999e-08, 0.0, 0.0, 0.0, 8.999999999999999e-08, 0.0, 0.0, 0.0, 8.999999999999999e-08)"
1970/01/01/01:00:12.163000,77,12,163000000,base_link,-0.000118476100536,-0.000153287087355,-0.700687518496,-0.713468302694,"(1.0, 0.0, 0.0, 0.0, 1.0, 0.0, 0.0, 0.0, 1.0)",9.09621012397e-05,-0.00203280942515,0.0178424138576,"(1.2184696791468346e-07, 0.0, 0.0, 0.0, 1.2184696791468346e-07, 0.0, 0.0, 0.0, 1.2184696791468346e-07)",0.0193284936249,-0.0167448557913,9.40812492371,"(8.999999999999999e-08, 0.0, 0.0, 0.0, 8.999999999999999e-08, 0.0, 0.0, 0.0, 8.999999999999999e-08)"
1970/01/01/01:00:12.184000,78,12,183000000,base_link,-5.4054221993e-05,-8.43875357554e-05,-0.70074181154,-0.713415105469,"(1.0, 0.0, 0.0, 0.0, 1.0, 0.0, 0.0, 0.0, 1.0)",-0.00829114578664,-0.000651905080304,0.00815366581082,"(1.2184696791468346e-07, 0.0, 0.0, 0.0, 1.2184696791468346e-07, 0.0, 0.0, 0.0, 1.2184696791468346e-07)",0.00528610218316,-0.144321322441,9.36835765839,"(8.999999999999999e-08, 0.0, 0.0, 0.0, 8.999999999999999e-08, 0.0, 0.0, 0.0, 8.999999999999999e-08)"
1970/01/01/01:00:12.203000,79,12,203000000,base_link,3.51003708276e-06,-0.000104130132882,-0.70083541969,-0.713323098899,"(1.0, 0.0, 0.0, 0.0, 1.0, 0.0, 0.0, 0.0, 1.0)",-0.00206717476249,0.00773338600993,0.012934030965,"(1.2184696791468346e-07, 0.0, 0.0, 0.0, 1.2184696791468346e-07, 0.0, 0.0, 0.0, 1.2184696791468346e-07)",-0.139879792929,-0.0675176307559,9.56235790253,"(8.999999999999999e-08, 0.0, 0.0, 0.0, 8.999999999999999e-08, 0.0, 0.0, 0.0, 8.999999999999999e-08)"
1970/01/01/01:00:12.224000,80,12,223000000,base_link,3.76798158677e-05,-4.17412691805e-05,-0.700953280059,-0.713207261578,"(1.0, 0.0, 0.0, 0.0, 1.0, 0.0, 0.0, 0.0, 1.0)",-0.00784107670188,-0.0030882623978,0.0148765156046,"(1.2184696791468346e-07, 0.0, 0.0, 0.0, 1.2184696791468346e-07, 0.0, 0.0, 0.0, 1.2184696791468346e-07)",0.0604470521212,0.0393148101866,9.48118019104,"(8.999999999999999e-08, 0.0, 0.0, 0.0, 8.999999999999999e-08, 0.0, 0.0, 0.0, 8.999999999999999e-08)"
1970/01/01/01:00:12.245000,81,12,245000000,base_link,6.75886301682e-05,-7.14442433046e-05,-0.701057164797,-0.713105062715,"(1.0, 0.0, 0.0, 0.0, 1.0, 0.0, 0.0, 0.0, 1.0)",0.00154570292216,0.0036726645194,0.0246574543417,"(1.2184696791468346e-07, 0.0, 0.0, 0.0, 1.2184696791468346e-07, 0.0, 0.0, 0.0, 1.2184696791468346e-07)",0.0216829236597,0.153377905488,9.40099239349,"(8.999999999999999e-08, 0.0, 0.0, 0.0, 8.999999999999999e-08, 0.0, 0.0, 0.0, 8.999999999999999e-08)"
1970/01/01/01:00:12.263000,82,12,263000000,base_link,1.37471474735e-05,-0.000126287979292,-0.701180367279,-0.712983967575,"(1.0, 0.0, 0.0, 0.0, 1.0, 0.0, 0.0, 0.0, 1.0)",0.00301080569625,-1.64217781275e-05,0.0183409489691,"(1.2184696791468346e-07, 0.0, 0.0, 0.0, 1.2184696791468346e-07, 0.0, 0.0, 0.0, 1.2184696791468346e-07)",0.00733178947121,0.0413335710764,9.46617126465,"(8.999999999999999e-08, 0.0, 0.0, 0.0, 8.999999999999999e-08, 0.0, 0.0, 0.0, 8.999999999999999e-08)"
1970/01/01/01:00:12.283000,83,12,283000000,base_link,0.000101821395455,-9.11419618125e-05,-0.701319447269,-0.712847247808,"(1.0, 0.0, 0.0, 0.0, 1.0, 0.0, 0.0, 0.0, 1.0)",-0.00767467636615,0.00524671841413,0.0210295990109,"(1.2184696791468346e-07, 0.0, 0.0, 0.0, 1.2184696791468346e-07, 0.0, 0.0, 0.0, 1.2184696791468346e-07)",0.0343179740012,0.00829719565809,9.59318065643,"(8.999999999999999e-08, 0.0, 0.0, 0.0, 8.999999999999999e-08, 0.0, 0.0, 0.0, 8.999999999999999e-08)"
1970/01/01/01:00:12.303000,84,12,303000000,base_link,7.55011220165e-05,-5.35668000181e-05,-0.701469918763,-0.712699052245,"(1.0, 0.0, 0.0, 0.0, 1.0, 0.0, 0.0, 0.0, 1.0)",0.00122702948283,-0.00620145816356,0.022730788216,"(1.2184696791468346e-07, 0.0, 0.0, 0.0, 1.2184696791468346e-07, 0.0, 0.0, 0.0, 1.2184696791468346e-07)",-0.00184028013609,0.0371171310544,9.78881645203,"(8.999999999999999e-08, 0.0, 0.0, 0.0, 8.999999999999999e-08, 0.0, 0.0, 0.0, 8.999999999999999e-08)"
1970/01/01/01:00:12.323000,85,12,322000000,base_link,0.000114554478281,-0.000154414299468,-0.701566350752,-0.712604137542,"(1.0, 0.0, 0.0, 0.0, 1.0, 0.0, 0.0, 0.0, 1.0)",0.00447099329904,0.0111267538741,0.0114205740392,"(1.2184696791468346e-07, 0.0, 0.0, 0.0, 1.2184696791468346e-07, 0.0, 0.0, 0.0, 1.2184696791468346e-07)",0.0570548474789,-0.0213784854859,9.70445156097,"(8.999999999999999e-08, 0.0, 0.0, 0.0, 8.999999999999999e-08, 0.0, 0.0, 0.0, 8.999999999999999e-08)"
1970/01/01/01:00:12.346000,86,12,346000000,base_link,0.000212385887615,-9.36831268638e-05,-0.70168955488,-0.712482872168,"(1.0, 0.0, 0.0, 0.0, 1.0, 0.0, 0.0, 0.0, 1.0)",-0.00964950956404,-0.00155447167344,0.0205401796848,"(1.2184696791468346e-07, 0.0, 0.0, 0.0, 1.2184696791468346e-07, 0.0, 0.0, 0.0, 1.2184696791468346e-07)",-0.112403973937,-0.04843968153,9.60067939758,"(8.999999999999999e-08, 0.0, 0.0, 0.0, 8.999999999999999e-08, 0.0, 0.0, 0.0, 8.999999999999999e-08)"
1970/01/01/01:00:12.363000,87,12,360000000,base_link,0.000127880952153,-7.79415567685e-05,-0.701835089595,-0.71233952909,"(1.0, 0.0, 0.0, 0.0, 1.0, 0.0, 0.0, 0.0, 1.0)",0.00490092486143,-0.00918391346931,0.0179853402078,"(1.2184696791468346e-07, 0.0, 0.0, 0.0, 1.2184696791468346e-07, 0.0, 0.0, 0.0, 1.2184696791468346e-07)",-0.0905883386731,0.0505730956793,9.6465883255,"(8.999999999999999e-08, 0.0, 0.0, 0.0, 8.999999999999999e-08, 0.0, 0.0, 0.0, 8.999999999999999e-08)"
1970/01/01/01:00:12.382000,88,12,383000000,base_link,0.000121552468053,-1.64489292149e-05,-0.701988613771,-0.712188280844,"(1.0, 0.0, 0.0, 0.0, 1.0, 0.0, 0.0, 0.0, 1.0)",-0.00458492292091,-0.00797622837126,0.0158064067364,"(1.2184696791468346e-07, 0.0, 0.0, 0.0, 1.2184696791468346e-07, 0.0, 0.0, 0.0, 1.2184696791468346e-07)",0.175838261843,-0.0650899335742,9.73897266388,"(8.999999999999999e-08, 0.0, 0.0, 0.0, 8.999999999999999e-08, 0.0, 0.0, 0.0, 8.999999999999999e-08)"
1970/01/01/01:00:12.404000,89,12,403000000,base_link,0.000113783819143,-2.09887035334e-05,-0.702087076053,-0.712091167261,"(1.0, 0.0, 0.0, 0.0, 1.0, 0.0, 0.0, 0.0, 1.0)",0.000846371985972,-0.00205595558509,0.0171142071486,"(1.2184696791468346e-07, 0.0, 0.0, 0.0, 1.2184696791468346e-07, 0.0, 0.0, 0.0, 1.2184696791468346e-07)",-0.0339088886976,-0.0633782669902,9.5958366394,"(8.999999999999999e-08, 0.0, 0.0, 0.0, 8.999999999999999e-08, 0.0, 0.0, 0.0, 8.999999999999999e-08)"
1970/01/01/01:00:12.424000,90,12,423000000,base_link,0.000157913483428,-6.57609117537e-05,-0.702227552816,-0.711952629253,"(1.0, 0.0, 0.0, 0.0, 1.0, 0.0, 0.0, 0.0, 1.0)",0.00383193092421,9.22334147617e-05,0.0138162756339,"(1.2184696791468346e-07, 0.0, 0.0, 0.0, 1.2184696791468346e-07, 0.0, 0.0, 0.0, 1.2184696791468346e-07)",-0.0226084776223,0.119737647474,9.84196662903,"(8.999999999999999e-08, 0.0, 0.0, 0.0, 8.999999999999999e-08, 0.0, 0.0, 0.0, 8.999999999999999e-08)"
1970/01/01/01:00:12.445000,91,12,442000000,base_link,0.000154356797728,-0.000101767398664,-0.70236573521,-0.71181630132,"(1.0, 0.0, 0.0, 0.0, 1.0, 0.0, 0.0, 0.0, 1.0)",0.00302814249881,0.00212063244544,0.023939082399,"(1.2184696791468346e-07, 0.0, 0.0, 0.0, 1.2184696791468346e-07, 0.0, 0.0, 0.0, 1.2184696791468346e-07)",0.206953585148,0.0155949145556,9.75589179993,"(8.999999999999999e-08, 0.0, 0.0, 0.0, 8.999999999999999e-08, 0.0, 0.0, 0.0, 8.999999999999999e-08)"
1970/01/01/01:00:12.463000,92,12,462000000,base_link,0.00022740506011,-8.60174475611e-05,-0.702476259394,-0.711707125836,"(1.0, 0.0, 0.0, 0.0, 1.0, 0.0, 0.0, 0.0, 1.0)",-0.00234283180907,0.00236374814995,0.0187398865819,"(1.2184696791468346e-07, 0.0, 0.0, 0.0, 1.2184696791468346e-07, 0.0, 0.0, 0.0, 1.2184696791468346e-07)",-0.120647281408,0.0263178274035,9.69357872009,"(8.999999999999999e-08, 0.0, 0.0, 0.0, 8.999999999999999e-08, 0.0, 0.0, 0.0, 8.999999999999999e-08)"
1970/01/01/01:00:12.483000,93,12,483000000,base_link,0.000248839294727,-0.00014433507255,-0.702657137862,-0.711528607591,"(1.0, 0.0, 0.0, 0.0, 1.0, 0.0, 0.0, 0.0, 1.0)",0.00436516664922,0.00436819344759,0.0255816541612,"(1.2184696791468346e-07, 0.0, 0.0, 0.0, 1.2184696791468346e-07, 0.0, 0.0, 0.0, 1.2184696791468346e-07)",0.0289944633842,0.0990391001105,9.7183265686,"(8.999999999999999e-08, 0.0, 0.0, 0.0, 8.999999999999999e-08, 0.0, 0.0, 0.0, 8.999999999999999e-08)"
1970/01/01/01:00:12.503000,94,12,503000000,base_link,0.000292020634342,-0.000247719645586,-0.702814524073,-0.711373075841,"(1.0, 0.0, 0.0, 0.0, 1.0, 0.0, 0.0, 0.0, 1.0)",0.00599791668355,0.01231102366,0.0205763522536,"(1.2184696791468346e-07, 0.0, 0.0, 0.0, 1.2184696791468346e-07, 0.0, 0.0, 0.0, 1.2184696791468346e-07)",-0.0831418558955,-0.107052616775,9.84276771545,"(8.999999999999999e-08, 0.0, 0.0, 0.0, 8.999999999999999e-08, 0.0, 0.0, 0.0, 8.999999999999999e-08)"
1970/01/01/01:00:12.524000,95,12,523000000,base_link,0.000370623045669,-0.000257280291856,-0.702938527675,-0.711250505233,"(1.0, 0.0, 0.0, 0.0, 1.0, 0.0, 0.0, 0.0, 1.0)",-0.00297475326806,0.00120276480448,0.0164809077978,"(1.2184696791468346e-07, 0.0, 0.0, 0.0, 1.2184696791468346e-07, 0.0, 0.0, 0.0, 1.2184696791468346e-07)",-0.0789928510785,-0.0700036138296,9.81545352936,"(8.999999999999999e-08, 0.0, 0.0, 0.0, 8.999999999999999e-08, 0.0, 0.0, 0.0, 8.999999999999999e-08)"
1970/01/01/01:00:12.546000,96,12,542000000,base_link,0.000409126905708,-0.000351586337513,-0.703036982383,-0.711153146342,"(1.0, 0.0, 0.0, 0.0, 1.0, 0.0, 0.0, 0.0, 1.0)",0.00432321755216,0.00926899723709,0.00916412100196,"(1.2184696791468346e-07, 0.0, 0.0, 0.0, 1.2184696791468346e-07, 0.0, 0.0, 0.0, 1.2184696791468346e-07)",-0.0202977713197,0.0106205558404,9.69182682037,"(8.999999999999999e-08, 0.0, 0.0, 0.0, 8.999999999999999e-08, 0.0, 0.0, 0.0, 8.999999999999999e-08)"
1970/01/01/01:00:12.563000,97,12,563000000,base_link,0.000390089850272,-0.000380727605971,-0.703135677461,-0.711055462789,"(1.0, 0.0, 0.0, 0.0, 1.0, 0.0, 0.0, 0.0, 1.0)",0.00224444828928,-0.00102910329588,0.00912436656654,"(1.2184696791468346e-07, 0.0, 0.0, 0.0, 1.2184696791468346e-07, 0.0, 0.0, 0.0, 1.2184696791468346e-07)",0.021699167788,-0.0295362714678,9.65945720673,"(8.999999999999999e-08, 0.0, 0.0, 0.0, 8.999999999999999e-08, 0.0, 0.0, 0.0, 8.999999999999999e-08)"
1970/01/01/01:00:12.583000,98,12,583000000,base_link,0.000384073605983,-0.000387127123163,-0.703201815744,-0.710990167442,"(1.0, 0.0, 0.0, 0.0, 1.0, 0.0, 0.0, 0.0, 1.0)",-0.000765798613429,0.00144886295311,0.00890882406384,"(1.2184696791468346e-07, 0.0, 0.0, 0.0, 1.2184696791468346e-07, 0.0, 0.0, 0.0, 1.2184696791468346e-07)",0.0977311879396,0.125369414687,9.844581604,"(8.999999999999999e-08, 0.0, 0.0, 0.0, 8.999999999999999e-08, 0.0, 0.0, 0.0, 8.999999999999999e-08)"
1970/01/01/01:00:12.603000,99,12,603000000,base_link,0.000358916031138,-0.000374643281749,-0.703234668554,-0.710957567513,"(1.0, 0.0, 0.0, 0.0, 1.0, 0.0, 0.0, 0.0, 1.0)",0.000548520474695,-0.00281430594623,0.0031144185923,"(1.2184696791468346e-07, 0.0, 0.0, 0.0, 1.2184696791468346e-07, 0.0, 0.0, 0.0, 1.2184696791468346e-07)",0.0110936285928,0.151473149657,9.86166572571,"(8.999999999999999e-08, 0.0, 0.0, 0.0, 8.999999999999999e-08, 0.0, 0.0, 0.0, 8.999999999999999e-08)"
1970/01/01/01:00:12.623000,100,12,623000000,base_link,0.000368383841443,-0.000373542691008,-0.703259615208,-0.710933042328,"(1.0, 0.0, 0.0, 0.0, 1.0, 0.0, 0.0, 0.0, 1.0)",0.00287698465399,-0.00534153170884,-0.00242999219336,"(1.2184696791468346e-07, 0.0, 0.0, 0.0, 1.2184696791468346e-07, 0.0, 0.0, 0.0, 1.2184696791468346e-07)",0.00662826560438,0.0913094729185,9.95509529114,"(8.999999999999999e-08, 0.0, 0.0, 0.0, 8.999999999999999e-08, 0.0, 0.0, 0.0, 8.999999999999999e-08)"
1970/01/01/01:00:12.644000,101,12,644000000,base_link,0.000242753283628,-0.000418282950977,-0.703208518081,-0.710983465105,"(1.0, 0.0, 0.0, 0.0, 1.0, 0.0, 0.0, 0.0, 1.0)",0.00983937643468,-1.47316604853e-05,-0.00737008918077,"(1.2184696791468346e-07, 0.0, 0.0, 0.0, 1.2184696791468346e-07, 0.0, 0.0, 0.0, 1.2184696791468346e-07)",0.0244236942381,0.0595351010561,10.2038354874,"(8.999999999999999e-08, 0.0, 0.0, 0.0, 8.999999999999999e-08, 0.0, 0.0, 0.0, 8.999999999999999e-08)"
1970/01/01/01:00:12.663000,102,12,663000000,base_link,0.000260754479422,-0.000418873001712,-0.703208643863,-0.710983423617,"(1.0, 0.0, 0.0, 0.0, 1.0, 0.0, 0.0, 0.0, 1.0)",0.000842235633172,0.0031575197354,0.0050945058465,"(1.2184696791468346e-07, 0.0, 0.0, 0.0, 1.2184696791468346e-07, 0.0, 0.0, 0.0, 1.2184696791468346e-07)",0.150816619396,0.0337452292442,10.0707149506,"(8.999999999999999e-08, 0.0, 0.0, 0.0, 8.999999999999999e-08, 0.0, 0.0, 0.0, 8.999999999999999e-08)"
1970/01/01/01:00:12.683000,103,12,683000000,base_link,0.000263557322021,-0.000484668682557,-0.703242976423,-0.710949428233,"(1.0, 0.0, 0.0, 0.0, 1.0, 0.0, 0.0, 0.0, 1.0)",0.00518703879789,0.00526222679764,0.00204534106888,"(1.2184696791468346e-07, 0.0, 0.0, 0.0, 1.2184696791468346e-07, 0.0, 0.0, 0.0, 1.2184696791468346e-07)",0.0957006514072,0.0634301155806,10.2247581482,"(8.999999999999999e-08, 0.0, 0.0, 0.0, 8.999999999999999e-08, 0.0, 0.0, 0.0, 8.999999999999999e-08)"
1970/01/01/01:00:12.704000,104,12,703000000,base_link,0.000265985385912,-0.000565953479433,-0.703254988933,-0.710937415722,"(1.0, 0.0, 0.0, 0.0, 1.0, 0.0, 0.0, 0.0, 1.0)",0.00656583020464,0.00632639415562,0.00379028730094,"(1.2184696791468346e-07, 0.0, 0.0, 0.0, 1.2184696791468346e-07, 0.0, 0.0, 0.0, 1.2184696791468346e-07)",0.0608246549964,-0.167847827077,10.2598934174,"(8.999999999999999e-08, 0.0, 0.0, 0.0, 8.999999999999999e-08, 0.0, 0.0, 0.0, 8.999999999999999e-08)"
1970/01/01/01:00:12.723000,105,12,723000000,base_link,0.00031499704643,-0.000567458356531,-0.703236065986,-0.710956085788,"(1.0, 0.0, 0.0, 0.0, 1.0, 0.0, 0.0, 0.0, 1.0)",-0.00701630115509,0.00183901353739,-0.0035593630746,"(1.2184696791468346e-07, 0.0, 0.0, 0.0, 1.2184696791468346e-07, 0.0, 0.0, 0.0, 1.2184696791468346e-07)",-0.0514113306999,-0.0379350036383,10.2601795197,"(8.999999999999999e-08, 0.0, 0.0, 0.0, 8.999999999999999e-08, 0.0, 0.0, 0.0, 8.999999999999999e-08)"
1970/01/01/01:00:12.744000,106,12,744000000,base_link,0.000323605015461,-0.000616034688261,-0.703248942836,-0.710943461819,"(1.0, 0.0, 0.0, 0.0, 1.0, 0.0, 0.0, 0.0, 1.0)",0.00829807855189,0.00824348255992,-0.000141056836583,"(1.2184696791468346e-07, 0.0, 0.0, 0.0, 1.2184696791468346e-07, 0.0, 0.0, 0.0, 1.2184696791468346e-07)",-0.104337416589,0.000699574069587,10.0813207626,"(8.999999999999999e-08, 0.0, 0.0, 0.0, 8.999999999999999e-08, 0.0, 0.0, 0.0, 8.999999999999999e-08)"
1970/01/01/01:00:12.764000,107,12,763000000,base_link,0.000257506790008,-0.000647053317909,-0.703308095938,-0.71088481448,"(1.0, 0.0, 0.0, 0.0, 1.0, 0.0, 0.0, 0.0, 1.0)",0.00626380415633,-0.0044570164755,0.0110015962273,"(1.2184696791468346e-07, 0.0, 0.0, 0.0, 1.2184696791468346e-07, 0.0, 0.0, 0.0, 1.2184696791468346e-07)",-0.0664092823863,-0.00460285739973,10.2339048386,"(8.999999999999999e-08, 0.0, 0.0, 0.0, 8.999999999999999e-08, 0.0, 0.0, 0.0, 8.999999999999999e-08)"
1970/01/01/01:00:12.784000,108,12,783000000,base_link,0.000234791984725,-0.000692593769746,-0.703375730764,-0.710817938297,"(1.0, 0.0, 0.0, 0.0, 1.0, 0.0, 0.0, 0.0, 1.0)",0.00226840167306,0.00104775629006,0.00873005576432,"(1.2184696791468346e-07, 0.0, 0.0, 0.0, 1.2184696791468346e-07, 0.0, 0.0, 0.0, 1.2184696791468346e-07)",0.0204104743898,-0.0767517536879,10.0560417175,"(8.999999999999999e-08, 0.0, 0.0, 0.0, 8.999999999999999e-08, 0.0, 0.0, 0.0, 8.999999999999999e-08)"
1970/01/01/01:00:12.802000,109,12,802000000,base_link,0.000165945869125,-0.000675197061217,-0.703409633952,-0.710784372283,"(1.0, 0.0, 0.0, 0.0, 1.0, 0.0, 0.0, 0.0, 1.0)",0.000902072992176,-0.0110576739535,0.0111410869285,"(1.2184696791468346e-07, 0.0, 0.0, 0.0, 1.2184696791468346e-07, 0.0, 0.0, 0.0, 1.2184696791468346e-07)",-0.210453093052,0.000346301356332,10.0385847092,"(8.999999999999999e-08, 0.0, 0.0, 0.0, 8.999999999999999e-08, 0.0, 0.0, 0.0, 8.999999999999999e-08)"
1970/01/01/01:00:12.823000,110,12,823000000,base_link,0.000222777107711,-0.000602020500989,-0.703558670147,-0.710636937668,"(1.0, 0.0, 0.0, 0.0, 1.0, 0.0, 0.0, 0.0, 1.0)",-0.00554637704045,-0.0001648432808,0.0169572755694,"(1.2184696791468346e-07, 0.0, 0.0, 0.0, 1.2184696791468346e-07, 0.0, 0.0, 0.0, 1.2184696791468346e-07)",-0.00484956149012,0.0805977061391,9.90367126465,"(8.999999999999999e-08, 0.0, 0.0, 0.0, 8.999999999999999e-08, 0.0, 0.0, 0.0, 8.999999999999999e-08)"
1970/01/01/01:00:12.847000,111,12,847000000,base_link,0.00027814207637,-0.000609104402523,-0.703632695818,-0.71056367064,"(1.0, 0.0, 0.0, 0.0, 1.0, 0.0, 0.0, 0.0, 1.0)",-0.00231019058265,0.00683756917715,0.0107659809291,"(1.2184696791468346e-07, 0.0, 0.0, 0.0, 1.2184696791468346e-07, 0.0, 0.0, 0.0, 1.2184696791468346e-07)",-0.0556523650885,-0.0317183621228,10.1940135956,"(8.999999999999999e-08, 0.0, 0.0, 0.0, 8.999999999999999e-08, 0.0, 0.0, 0.0, 8.999999999999999e-08)"
1970/01/01/01:00:12.862000,112,12,862000000,base_link,0.000307192738364,-0.000653838301974,-0.703700207826,-0.710496664395,"(1.0, 0.0, 0.0, 0.0, 1.0, 0.0, 0.0, 0.0, 1.0)",0.00124340248294,0.00246237800457,0.0126743093133,"(1.2184696791468346e-07, 0.0, 0.0, 0.0, 1.2184696791468346e-07, 0.0, 0.0, 0.0, 1.2184696791468346e-07)",0.056316293776,0.0148812141269,9.92469024658,"(8.999999999999999e-08, 0.0, 0.0, 0.0, 8.999999999999999e-08, 0.0, 0.0, 0.0, 8.999999999999999e-08)"
1970/01/01/01:00:12.885000,113,12,885000000,base_link,0.000298471551127,-0.000693802075441,-0.703829420844,-0.710368715783,"(1.0, 0.0, 0.0, 0.0, 1.0, 0.0, 0.0, 0.0, 1.0)",0.00444445712492,0.000881121319253,0.0200962275267,"(1.2184696791468346e-07, 0.0, 0.0, 0.0, 1.2184696791468346e-07, 0.0, 0.0, 0.0, 1.2184696791468346e-07)",0.145425334573,-0.185668244958,9.81841850281,"(8.999999999999999e-08, 0.0, 0.0, 0.0, 8.999999999999999e-08, 0.0, 0.0, 0.0, 8.999999999999999e-08)"
1970/01/01/01:00:12.904000,114,12,902000000,base_link,0.000376168669551,-0.000755247262066,-0.703933321716,-0.710265573554,"(1.0, 0.0, 0.0, 0.0, 1.0, 0.0, 0.0, 0.0, 1.0)",0.00197449163534,0.0103783775121,0.0148651059717,"(1.2184696791468346e-07, 0.0, 0.0, 0.0, 1.2184696791468346e-07, 0.0, 0.0, 0.0, 1.2184696791468346e-07)",0.0624182149768,-0.135643661022,9.84072589874,"(8.999999999999999e-08, 0.0, 0.0, 0.0, 8.999999999999999e-08, 0.0, 0.0, 0.0, 8.999999999999999e-08)"
1970/01/01/01:00:12.923000,115,12,921000000,base_link,0.000372923115261,-0.000738039329436,-0.704045403027,-0.710154503767,"(1.0, 0.0, 0.0, 0.0, 1.0, 0.0, 0.0, 0.0, 1.0)",0.001187217189,-0.00593462726101,0.0168634559959,"(1.2184696791468346e-07, 0.0, 0.0, 0.0, 1.2184696791468346e-07, 0.0, 0.0, 0.0, 1.2184696791468346e-07)",0.0745722576976,0.0714432001114,9.61518764496,"(8.999999999999999e-08, 0.0, 0.0, 0.0, 8.999999999999999e-08, 0.0, 0.0, 0.0, 8.999999999999999e-08)"
1970/01/01/01:00:12.947000,116,12,946000000,base_link,0.000336154126418,-0.000730353518222,-0.704119321685,-0.710081175165,"(1.0, 0.0, 0.0, 0.0, 1.0, 0.0, 0.0, 0.0, 1.0)",0.00243006972596,-0.00464990921319,0.0107206040993,"(1.2184696791468346e-07, 0.0, 0.0, 0.0, 1.2184696791468346e-07, 0.0, 0.0, 0.0, 1.2184696791468346e-07)",0.0595154836774,0.00460093235597,9.58460235596,"(8.999999999999999e-08, 0.0, 0.0, 0.0, 8.999999999999999e-08, 0.0, 0.0, 0.0, 8.999999999999999e-08)"
1970/01/01/01:00:12.963000,117,12,963000000,base_link,0.000314819836219,-0.000745302560871,-0.704181347687,-0.710019739219,"(1.0, 0.0, 0.0, 0.0, 1.0, 0.0, 0.0, 0.0, 1.0)",0.00193823524751,-0.00153191224672,0.0115056941286,"(1.2184696791468346e-07, 0.0, 0.0, 0.0, 1.2184696791468346e-07, 0.0, 0.0, 0.0, 1.2184696791468346e-07)",0.0434918105602,-0.0317834466696,9.86533737183,"(8.999999999999999e-08, 0.0, 0.0, 0.0, 8.999999999999999e-08, 0.0, 0.0, 0.0, 8.999999999999999e-08)"
1970/01/01/01:00:12.983000,118,12,983000000,base_link,0.000308448397525,-0.000761895268874,-0.704203334513,-0.709997836687,"(1.0, 0.0, 0.0, 0.0, 1.0, 0.0, 0.0, 0.0, 1.0)",0.00189728790428,0.00277076661587,0.00194932881277,"(1.2184696791468346e-07, 0.0, 0.0, 0.0, 1.2184696791468346e-07, 0.0, 0.0, 0.0, 1.2184696791468346e-07)",0.0825612619519,-0.152336254716,9.7648601532,"(8.999999999999999e-08, 0.0, 0.0, 0.0, 8.999999999999999e-08, 0.0, 0.0, 0.0, 8.999999999999999e-08)"
1970/01/01/01:00:13.003000,119,13,3000000,base_link,0.000296519501728,-0.000809137790731,-0.704289355243,-0.709912490306,"(1.0, 0.0, 0.0, 0.0, 1.0, 0.0, 0.0, 0.0, 1.0)",0.00514291971922,-0.000145885918755,0.017155919224,"(1.2184696791468346e-07, 0.0, 0.0, 0.0, 1.2184696791468346e-07, 0.0, 0.0, 0.0, 1.2184696791468346e-07)",-0.041099306196,0.142272010446,9.76009654999,"(8.999999999999999e-08, 0.0, 0.0, 0.0, 8.999999999999999e-08, 0.0, 0.0, 0.0, 8.999999999999999e-08)"
1970/01/01/01:00:13.023000,120,13,23000000,base_link,0.00033005234112,-0.000827165693591,-0.704331807656,-0.709870459362,"(1.0, 0.0, 0.0, 0.0, 1.0, 0.0, 0.0, 0.0, 1.0)",-0.00190565316007,-0.00331969885156,0.00356461410411,"(1.2184696791468346e-07, 0.0, 0.0, 0.0, 1.2184696791468346e-07, 0.0, 0.0, 0.0, 1.2184696791468346e-07)",-0.0448849648237,0.110019177198,9.58400344849,"(8.999999999999999e-08, 0.0, 0.0, 0.0, 8.999999999999999e-08, 0.0, 0.0, 0.0, 8.999999999999999e-08)"
1970/01/01/01:00:13.045000,121,13,45000000,base_link,0.000243959006594,-0.000815437839085,-0.704363986281,-0.709838533618,"(1.0, 0.0, 0.0, 0.0, 1.0, 0.0, 0.0, 0.0, 1.0)",0.00309126614593,-0.00257143797353,0.00224352045916,"(1.2184696791468346e-07, 0.0, 0.0, 0.0, 1.2184696791468346e-07, 0.0, 0.0, 0.0, 1.2184696791468346e-07)",-0.0561291947961,-0.0513010211289,9.29713439941,"(8.999999999999999e-08, 0.0, 0.0, 0.0, 8.999999999999999e-08, 0.0, 0.0, 0.0, 8.999999999999999e-08)"
1970/01/01/01:00:13.063000,122,13,63000000,base_link,0.000337139576536,-0.000783375879431,-0.704445482152,-0.709757543509,"(1.0, 0.0, 0.0, 0.0, 1.0, 0.0, 0.0, 0.0, 1.0)",-0.0094890948385,0.00419545266777,0.0153677221388,"(1.2184696791468346e-07, 0.0, 0.0, 0.0, 1.2184696791468346e-07, 0.0, 0.0, 0.0, 1.2184696791468346e-07)",0.121973589063,-0.165560275316,9.49952316284,"(8.999999999999999e-08, 0.0, 0.0, 0.0, 8.999999999999999e-08, 0.0, 0.0, 0.0, 8.999999999999999e-08)"
1970/01/01/01:00:13.083000,123,13,83000000,base_link,0.000304626205201,-0.000854227818705,-0.704442316857,-0.70976062451,"(1.0, 0.0, 0.0, 0.0, 1.0, 0.0, 0.0, 0.0, 1.0)",0.0106446072459,0.000524463423062,-0.00452343095094,"(1.2184696791468346e-07, 0.0, 0.0, 0.0, 1.2184696791468346e-07, 0.0, 0.0, 0.0, 1.2184696791468346e-07)",-0.0772956162691,0.0671345964074,9.42987155914,"(8.999999999999999e-08, 0.0, 0.0, 0.0, 8.999999999999999e-08, 0.0, 0.0, 0.0, 8.999999999999999e-08)"
1970/01/01/01:00:13.103000,124,13,103000000,base_link,0.000332001138955,-0.000853254263547,-0.704466002563,-0.709737275979,"(1.0, 0.0, 0.0, 0.0, 1.0, 0.0, 0.0, 0.0, 1.0)",-0.00481446553022,0.00126773735974,0.00440958561376,"(1.2184696791468346e-07, 0.0, 0.0, 0.0, 1.2184696791468346e-07, 0.0, 0.0, 0.0, 1.2184696791468346e-07)",-0.0319074876606,0.219213843346,9.26495933533,"(8.999999999999999e-08, 0.0, 0.0, 0.0, 8.999999999999999e-08, 0.0, 0.0, 0.0, 8.999999999999999e-08)"
1970/01/01/01:00:13.123000,125,13,122000000,base_link,0.00031316110666,-0.000866383068597,-0.704488444607,-0.709714918228,"(1.0, 0.0, 0.0, 0.0, 1.0, 0.0, 0.0, 0.0, 1.0)",0.00225418107584,-0.000974832335487,0.00300105381757,"(1.2184696791468346e-07, 0.0, 0.0, 0.0, 1.2184696791468346e-07, 0.0, 0.0, 0.0, 1.2184696791468346e-07)",-0.0293727442622,-0.0578131750226,9.49261760712,"(8.999999999999999e-08, 0.0, 0.0, 0.0, 8.999999999999999e-08, 0.0, 0.0, 0.0, 8.999999999999999e-08)"
1970/01/01/01:00:13.146000,126,13,145000000,base_link,0.000393344436397,-0.000878465117151,-0.704504014081,-0.709699348754,"(1.0, 0.0, 0.0, 0.0, 1.0, 0.0, 0.0, 0.0, 1.0)",-0.00426589604467,0.0074279429391,0.00212364923209,"(1.2184696791468346e-07, 0.0, 0.0, 0.0, 1.2184696791468346e-07, 0.0, 0.0, 0.0, 1.2184696791468346e-07)",-0.0637132152915,-0.0131259281188,9.34509468079,"(8.999999999999999e-08, 0.0, 0.0, 0.0, 8.999999999999999e-08, 0.0, 0.0, 0.0, 8.999999999999999e-08)"
1970/01/01/01:00:13.163000,127,13,163000000,base_link,0.000491862056826,-0.000908832147878,-0.704509092283,-0.709694270553,"(1.0, 0.0, 0.0, 0.0, 1.0, 0.0, 0.0, 0.0, 1.0)",-0.00107548874803,0.012986860238,1.66740210261e-05,"(1.2184696791468346e-07, 0.0, 0.0, 0.0, 1.2184696791468346e-07, 0.0, 0.0, 0.0, 1.2184696791468346e-07)",0.0538927279413,-0.0363094694912,9.36782169342,"(8.999999999999999e-08, 0.0, 0.0, 0.0, 8.999999999999999e-08, 0.0, 0.0, 0.0, 8.999999999999999e-08)"
1970/01/01/01:00:13.183000,128,13,183000000,base_link,0.000462081315927,-0.000980046039677,-0.704551796095,-0.709651735328,"(1.0, 0.0, 0.0, 0.0, 1.0, 0.0, 0.0, 0.0, 1.0)",0.00744269043207,-0.00150330271572,0.00440603401512,"(1.2184696791468346e-07, 0.0, 0.0, 0.0, 1.2184696791468346e-07, 0.0, 0.0, 0.0, 1.2184696791468346e-07)",0.0515603795648,-0.0496210753918,9.39214420319,"(8.999999999999999e-08, 0.0, 0.0, 0.0, 8.999999999999999e-08, 0.0, 0.0, 0.0, 8.999999999999999e-08)"
1970/01/01/01:00:13.203000,129,13,203000000,base_link,0.000456152377983,-0.000982217651931,-0.704551011604,-0.709652604113,"(1.0, 0.0, 0.0, 0.0, 1.0, 0.0, 0.0, 0.0, 1.0)",0.00156858772971,-0.00513740163296,-5.78415092605e-05,"(1.2184696791468346e-07, 0.0, 0.0, 0.0, 1.2184696791468346e-07, 0.0, 0.0, 0.0, 1.2184696791468346e-07)",-0.119824804366,0.102274626493,9.30420398712,"(8.999999999999999e-08, 0.0, 0.0, 0.0, 8.999999999999999e-08, 0.0, 0.0, 0.0, 8.999999999999999e-08)"
1970/01/01/01:00:13.223000,130,13,224000000,base_link,0.000478858004802,-0.000988274615043,-0.704584141496,-0.709619642808,"(1.0, 0.0, 0.0, 0.0, 1.0, 0.0, 0.0, 0.0, 1.0)",-0.0012222933583,0.00292616244406,0.00594871398062,"(1.2184696791468346e-07, 0.0, 0.0, 0.0, 1.2184696791468346e-07, 0.0, 0.0, 0.0, 1.2184696791468346e-07)",0.0538793243468,0.0153689468279,9.50947093964,"(8.999999999999999e-08, 0.0, 0.0, 0.0, 8.999999999999999e-08, 0.0, 0.0, 0.0, 8.999999999999999e-08)"
1970/01/01/01:00:13.245000,131,13,242000000,base_link,0.000530949739723,-0.00101087680921,-0.704631130293,-0.709572906892,"(1.0, 0.0, 0.0, 0.0, 1.0, 0.0, 0.0, 0.0, 1.0)",-0.00238594319671,0.00554511509836,0.00976445432752,"(1.2184696791468346e-07, 0.0, 0.0, 0.0, 1.2184696791468346e-07, 0.0, 0.0, 0.0, 1.2184696791468346e-07)",-0.0441607199609,0.198211416602,9.33264064789,"(8.999999999999999e-08, 0.0, 0.0, 0.0, 8.999999999999999e-08, 0.0, 0.0, 0.0, 8.999999999999999e-08)"
1970/01/01/01:00:13.263000,132,13,263000000,base_link,0.000594972490131,-0.00106692269232,-0.704692077271,-0.709512212796,"(1.0, 0.0, 0.0, 0.0, 1.0, 0.0, 0.0, 0.0, 1.0)",-0.00221080216579,0.0103600695729,0.0017852364108,"(1.2184696791468346e-07, 0.0, 0.0, 0.0, 1.2184696791468346e-07, 0.0, 0.0, 0.0, 1.2184696791468346e-07)",-0.0420101508498,0.0747566744685,9.41135787964,"(8.999999999999999e-08, 0.0, 0.0, 0.0, 8.999999999999999e-08, 0.0, 0.0, 0.0, 8.999999999999999e-08)"
1970/01/01/01:00:13.283000,133,13,283000000,base_link,0.000628026135496,-0.0010276724724,-0.704754866361,-0.709450013761,"(1.0, 0.0, 0.0, 0.0, 1.0, 0.0, 0.0, 0.0, 1.0)",-0.00741772726178,-0.00600725645199,0.00943239219487,"(1.2184696791468346e-07, 0.0, 0.0, 0.0, 1.2184696791468346e-07, 0.0, 0.0, 0.0, 1.2184696791468346e-07)",0.0437531657517,0.0985067486763,9.32463741302,"(8.999999999999999e-08, 0.0, 0.0, 0.0, 8.999999999999999e-08, 0.0, 0.0, 0.0, 8.999999999999999e-08)"
1970/01/01/01:00:13.303000,134,13,303000000,base_link,0.000629558280453,-0.000961178533729,-0.704731302816,-0.709473493013,"(1.0, 0.0, 0.0, 0.0, 1.0, 0.0, 0.0, 0.0, 1.0)",0.00114211894106,-0.0050083254464,-0.00127857702319,"(1.2184696791468346e-07, 0.0, 0.0, 0.0, 1.2184696791468346e-07, 0.0, 0.0, 0.0, 1.2184696791468346e-07)",-0.0192625075579,0.00617478275672,9.40872764587,"(8.999999999999999e-08, 0.0, 0.0, 0.0, 8.999999999999999e-08, 0.0, 0.0, 0.0, 8.999999999999999e-08)"
1970/01/01/01:00:13.323000,135,13,323000000,base_link,0.00056047634418,-0.00105232763792,-0.704822908826,-0.709382392765,"(1.0, 0.0, 0.0, 0.0, 1.0, 0.0, 0.0, 0.0, 1.0)",0.0127457622439,-0.00115270959213,0.0135258520022,"(1.2184696791468346e-07, 0.0, 0.0, 0.0, 1.2184696791468346e-07, 0.0, 0.0, 0.0, 1.2184696791468346e-07)",0.168858021498,0.199754863977,9.33205318451,"(8.999999999999999e-08, 0.0, 0.0, 0.0, 8.999999999999999e-08, 0.0, 0.0, 0.0, 8.999999999999999e-08)"
1970/01/01/01:00:13.345000,136,13,345000000,base_link,0.000585354015422,-0.000984951784672,-0.704882139143,-0.709323583917,"(1.0, 0.0, 0.0, 0.0, 1.0, 0.0, 0.0, 0.0, 1.0)",-0.00848201196641,-0.0047322679311,0.00819110777229,"(1.2184696791468346e-07, 0.0, 0.0, 0.0, 1.2184696791468346e-07, 0.0, 0.0, 0.0, 1.2184696791468346e-07)",0.00497635360807,0.113780021667,9.60927391052,"(8.999999999999999e-08, 0.0, 0.0, 0.0, 8.999999999999999e-08, 0.0, 0.0, 0.0, 8.999999999999999e-08)"
1970/01/01/01:00:13.363000,137,13,363000000,base_link,0.000669997358419,-0.00103276149857,-0.704953435147,-0.709252625087,"(1.0, 0.0, 0.0, 0.0, 1.0, 0.0, 0.0, 0.0, 1.0)",-4.317323328e-05,0.0109036257491,0.00752363912761,"(1.2184696791468346e-07, 0.0, 0.0, 0.0, 1.2184696791468346e-07, 0.0, 0.0, 0.0, 1.2184696791468346e-07)",0.133781343699,0.0629653036594,9.81201553345,"(8.999999999999999e-08, 0.0, 0.0, 0.0, 8.999999999999999e-08, 0.0, 0.0, 0.0, 8.999999999999999e-08)"
1970/01/01/01:00:13.383000,138,13,383000000,base_link,0.000785690231206,-0.0010327296209,-0.704960253881,-0.709245637766,"(1.0, 0.0, 0.0, 0.0, 1.0, 0.0, 0.0, 0.0, 1.0)",-0.00874376948923,0.00724588986486,0.000116220791824,"(1.2184696791468346e-07, 0.0, 0.0, 0.0, 1.2184696791468346e-07, 0.0, 0.0, 0.0, 1.2184696791468346e-07)",0.0175135973841,0.113530255854,9.7388792038,"(8.999999999999999e-08, 0.0, 0.0, 0.0, 8.999999999999999e-08, 0.0, 0.0, 0.0, 8.999999999999999e-08)"
1970/01/01/01:00:13.403000,139,13,403000000,base_link,0.000797357890629,-0.00101680134314,-0.705005850515,-0.709200378306,"(1.0, 0.0, 0.0, 0.0, 1.0, 0.0, 0.0, 0.0, 1.0)",-0.000926979642827,9.5228315331e-05,0.00882691517472,"(1.2184696791468346e-07, 0.0, 0.0, 0.0, 1.2184696791468346e-07, 0.0, 0.0, 0.0, 1.2184696791468346e-07)",0.0379203297198,0.13142336905,9.8584985733,"(8.999999999999999e-08, 0.0, 0.0, 0.0, 8.999999999999999e-08, 0.0, 0.0, 0.0, 8.999999999999999e-08)"
1970/01/01/01:00:13.424000,140,13,423000000,base_link,0.000784825665165,-0.00112234441928,-0.704984322695,-0.709221568952,"(1.0, 0.0, 0.0, 0.0, 1.0, 0.0, 0.0, 0.0, 1.0)",0.00735199358314,0.00480325706303,-0.00271583721042,"(1.2184696791468346e-07, 0.0, 0.0, 0.0, 1.2184696791468346e-07, 0.0, 0.0, 0.0, 1.2184696791468346e-07)",0.0616350732744,-0.072067193687,9.90838241577,"(8.999999999999999e-08, 0.0, 0.0, 0.0, 8.999999999999999e-08, 0.0, 0.0, 0.0, 8.999999999999999e-08)"
1970/01/01/01:00:13.446000,141,13,445000000,base_link,0.000737184847358,-0.00115236209215,-0.704995292894,-0.709210683046,"(1.0, 0.0, 0.0, 0.0, 1.0, 0.0, 0.0, 0.0, 1.0)",0.00797440856695,-0.000812579353806,0.00077398319263,"(1.2184696791468346e-07, 0.0, 0.0, 0.0, 1.2184696791468346e-07, 0.0, 0.0, 0.0, 1.2184696791468346e-07)",0.123249262571,-0.0270488932729,9.77509307861,"(8.999999999999999e-08, 0.0, 0.0, 0.0, 8.999999999999999e-08, 0.0, 0.0, 0.0, 8.999999999999999e-08)"
1970/01/01/01:00:13.463000,142,13,463000000,base_link,0.000751743722966,-0.00119672665103,-0.704999398919,-0.709206492728,"(1.0, 0.0, 0.0, 0.0, 1.0, 0.0, 0.0, 0.0, 1.0)",-0.00194855430163,4.63697942905e-05,-0.00138639158104,"(1.2184696791468346e-07, 0.0, 0.0, 0.0, 1.2184696791468346e-07, 0.0, 0.0, 0.0, 1.2184696791468346e-07)",0.159650936723,0.179014697671,10.0043230057,"(8.999999999999999e-08, 0.0, 0.0, 0.0, 8.999999999999999e-08, 0.0, 0.0, 0.0, 8.999999999999999e-08)"
1970/01/01/01:00:13.484000,143,13,483000000,base_link,0.000858023051863,-0.00120004114669,-0.704993324175,-0.709212398884,"(1.0, 0.0, 0.0, 0.0, 1.0, 0.0, 0.0, 0.0, 1.0)",-0.00911793485284,0.00900706276298,-9.74793219939e-05,"(1.2184696791468346e-07, 0.0, 0.0, 0.0, 1.2184696791468346e-07, 0.0, 0.0, 0.0, 1.2184696791468346e-07)",-0.011551849544,-0.080939553678,10.1370649338,"(8.999999999999999e-08, 0.0, 0.0, 0.0, 8.999999999999999e-08, 0.0, 0.0, 0.0, 8.999999999999999e-08)"
1970/01/01/01:00:13.503000,144,13,503000000,base_link,0.00086350806907,-0.00118211754082,-0.704959875383,-0.709245679089,"(1.0, 0.0, 0.0, 0.0, 1.0, 0.0, 0.0, 0.0, 1.0)",-0.00181768054608,-0.00174277031329,-0.00890014879405,"(1.2184696791468346e-07, 0.0, 0.0, 0.0, 1.2184696791468346e-07, 0.0, 0.0, 0.0, 1.2184696791468346e-07)",0.0743727087975,0.0739600807428,10.2091474533,"(8.999999999999999e-08, 0.0, 0.0, 0.0, 8.999999999999999e-08, 0.0, 0.0, 0.0, 8.999999999999999e-08)"
1970/01/01/01:00:13.523000,145,13,523000000,base_link,0.000865154245125,-0.00113739514532,-0.704940884935,-0.709264669537,"(1.0, 0.0, 0.0, 0.0, 1.0, 0.0, 0.0, 0.0, 1.0)",-0.00345250754617,-0.00328515237197,-0.000817207503133,"(1.2184696791468346e-07, 0.0, 0.0, 0.0, 1.2184696791468346e-07, 0.0, 0.0, 0.0, 1.2184696791468346e-07)",0.0517819970846,-0.0500577688217,9.96931934357,"(8.999999999999999e-08, 0.0, 0.0, 0.0, 8.999999999999999e-08, 0.0, 0.0, 0.0, 8.999999999999999e-08)"
1970/01/01/01:00:13.545000,146,13,545000000,base_link,0.000938730181728,-0.00110798548396,-0.704983068497,-0.709222738856,"(1.0, 0.0, 0.0, 0.0, 1.0, 0.0, 0.0, 0.0, 1.0)",-0.012349145487,0.00288335676305,0.00475650886074,"(1.2184696791468346e-07, 0.0, 0.0, 0.0, 1.2184696791468346e-07, 0.0, 0.0, 0.0, 1.2184696791468346e-07)",0.174158498645,0.0359934084117,10.1543664932,"(8.999999999999999e-08, 0.0, 0.0, 0.0, 8.999999999999999e-08, 0.0, 0.0, 0.0, 8.999999999999999e-08)"
1970/01/01/01:00:13.563000,147,13,563000000,base_link,0.000916346130424,-0.0010558662548,-0.704915378353,-0.709290091825,"(1.0, 0.0, 0.0, 0.0, 1.0, 0.0, 0.0, 0.0, 1.0)",-0.0055424743332,-0.00507667148486,-0.00525327865034,"(1.2184696791468346e-07, 0.0, 0.0, 0.0, 1.2184696791468346e-07, 0.0, 0.0, 0.0, 1.2184696791468346e-07)",0.151591420174,0.180452316999,10.2195653915,"(8.999999999999999e-08, 0.0, 0.0, 0.0, 8.999999999999999e-08, 0.0, 0.0, 0.0, 8.999999999999999e-08)"
1970/01/01/01:00:13.584000,148,13,584000000,base_link,0.000970039980656,-0.00108554315147,-0.704932810356,-0.709272659822,"(1.0, 0.0, 0.0, 0.0, 1.0, 0.0, 0.0, 0.0, 1.0)",-0.00256655993871,0.00762034486979,-0.000903626845684,"(1.2184696791468346e-07, 0.0, 0.0, 0.0, 1.2184696791468346e-07, 0.0, 0.0, 0.0, 1.2184696791468346e-07)",0.114992298186,0.244718551636,10.2079191208,"(8.999999999999999e-08, 0.0, 0.0, 0.0, 8.999999999999999e-08, 0.0, 0.0, 0.0, 8.999999999999999e-08)"
1970/01/01/01:00:13.603000,149,13,603000000,base_link,0.000947124360458,-0.00112458603276,-0.704993090557,-0.709212632503,"(1.0, 0.0, 0.0, 0.0, 1.0, 0.0, 0.0, 0.0, 1.0)",0.00843643303961,0.000549523625523,0.0069043468684,"(1.2184696791468346e-07, 0.0, 0.0, 0.0, 1.2184696791468346e-07, 0.0, 0.0, 0.0, 1.2184696791468346e-07)",0.0911433473229,-0.0621234290302,10.0251893997,"(8.999999999999999e-08, 0.0, 0.0, 0.0, 8.999999999999999e-08, 0.0, 0.0, 0.0, 8.999999999999999e-08)"
1970/01/01/01:00:13.624000,150,13,623000000,base_link,0.000965517961315,-0.00115947543268,-0.705000261942,-0.709205545411,"(1.0, 0.0, 0.0, 0.0, 1.0, 0.0, 0.0, 0.0, 1.0)",-0.0020541229751,0.00317372241989,-0.00165956874844,"(1.2184696791468346e-07, 0.0, 0.0, 0.0, 1.2184696791468346e-07, 0.0, 0.0, 0.0, 1.2184696791468346e-07)",0.0681429952383,-0.0541227385402,10.0704317093,"(8.999999999999999e-08, 0.0, 0.0, 0.0, 8.999999999999999e-08, 0.0, 0.0, 0.0, 8.999999999999999e-08)"
1970/01/01/01:00:13.644000,151,13,644000000,base_link,0.000948277204358,-0.00121705483956,-0.704979409459,-0.709226145013,"(1.0, 0.0, 0.0, 0.0, 1.0, 0.0, 0.0, 0.0, 1.0)",0.00612765084952,-0.000959550670814,-0.00535498466343,"(1.2184696791468346e-07, 0.0, 0.0, 0.0, 1.2184696791468346e-07, 0.0, 0.0, 0.0, 1.2184696791468346e-07)",0.206477493048,0.10659712553,10.2765312195,"(8.999999999999999e-08, 0.0, 0.0, 0.0, 8.999999999999999e-08, 0.0, 0.0, 0.0, 8.999999999999999e-08)"
1970/01/01/01:00:13.663000,152,13,662000000,base_link,0.000990818737114,-0.00127997542313,-0.704963381144,-0.709241920447,"(1.0, 0.0, 0.0, 0.0, 1.0, 0.0, 0.0, 0.0, 1.0)",0.00156744010746,0.00707999477163,-0.00370278744958,"(1.2184696791468346e-07, 0.0, 0.0, 0.0, 1.2184696791468346e-07, 0.0, 0.0, 0.0, 1.2184696791468346e-07)",0.0145954452455,0.017769029364,10.0624103546,"(8.999999999999999e-08, 0.0, 0.0, 0.0, 8.999999999999999e-08, 0.0, 0.0, 0.0, 8.999999999999999e-08)"
1970/01/01/01:00:13.683000,153,13,683000000,base_link,0.00102043568565,-0.00145071718379,-0.704991132374,-0.709214000629,"(1.0, 0.0, 0.0, 0.0, 1.0, 0.0, 0.0, 0.0, 1.0)",0.00921889394522,0.0135562047362,0.00651161186397,"(1.2184696791468346e-07, 0.0, 0.0, 0.0, 1.2184696791468346e-07, 0.0, 0.0, 0.0, 1.2184696791468346e-07)",0.0217361710966,0.0638471841812,10.0449895859,"(8.999999999999999e-08, 0.0, 0.0, 0.0, 8.999999999999999e-08, 0.0, 0.0, 0.0, 8.999999999999999e-08)"
1970/01/01/01:00:13.703000,154,13,703000000,base_link,0.00104615450344,-0.00147753721148,-0.704951892341,-0.709252819193,"(1.0, 0.0, 0.0, 0.0, 1.0, 0.0, 0.0, 0.0, 1.0)",-0.000591550196987,0.00338955037296,-0.00860872771591,"(1.2184696791468346e-07, 0.0, 0.0, 0.0, 1.2184696791468346e-07, 0.0, 0.0, 0.0, 1.2184696791468346e-07)",0.084754280746,0.109777070582,9.89771461487,"(8.999999999999999e-08, 0.0, 0.0, 0.0, 8.999999999999999e-08, 0.0, 0.0, 0.0, 8.999999999999999e-08)"
1970/01/01/01:00:13.723000,155,13,723000000,base_link,0.00102297785266,-0.00153276505883,-0.704948936135,-0.7092557754,"(1.0, 0.0, 0.0, 0.0, 1.0, 0.0, 0.0, 0.0, 1.0)",0.00470388587564,0.000384207000025,-0.00187488039955,"(1.2184696791468346e-07, 0.0, 0.0, 0.0, 1.2184696791468346e-07, 0.0, 0.0, 0.0, 1.2184696791468346e-07)",0.0775530785322,0.0659194141626,10.049197197,"(8.999999999999999e-08, 0.0, 0.0, 0.0, 8.999999999999999e-08, 0.0, 0.0, 0.0, 8.999999999999999e-08)"
1970/01/01/01:00:13.745000,156,13,745000000,base_link,0.00106822117745,-0.00156645734831,-0.705022439251,-0.709182525165,"(1.0, 0.0, 0.0, 0.0, 1.0, 0.0, 0.0, 0.0, 1.0)",0.00242287153378,0.00870074611157,0.00910079386085,"(1.2184696791468346e-07, 0.0, 0.0, 0.0, 1.2184696791468346e-07, 0.0, 0.0, 0.0, 1.2184696791468346e-07)",-0.0551365204155,0.132584139705,9.72510814667,"(8.999999999999999e-08, 0.0, 0.0, 0.0, 8.999999999999999e-08, 0.0, 0.0, 0.0, 8.999999999999999e-08)"
1970/01/01/01:00:13.763000,157,13,763000000,base_link,0.0010561489659,-0.00154743094792,-0.705063141418,-0.709142075879,"(1.0, 0.0, 0.0, 0.0, 1.0, 0.0, 0.0, 0.0, 1.0)",0.00590169616044,-0.00481473747641,0.00277447747067,"(1.2184696791468346e-07, 0.0, 0.0, 0.0, 1.2184696791468346e-07, 0.0, 0.0, 0.0, 1.2184696791468346e-07)",0.111812375486,0.108703762293,9.73154354095,"(8.999999999999999e-08, 0.0, 0.0, 0.0, 8.999999999999999e-08, 0.0, 0.0, 0.0, 8.999999999999999e-08)"
1970/01/01/01:00:13.783000,158,13,783000000,base_link,0.000980812873598,-0.0015809081403,-0.705089875361,-0.709115510523,"(1.0, 0.0, 0.0, 0.0, 1.0, 0.0, 0.0, 0.0, 1.0)",0.00586931873113,-0.0050235465169,0.000999414245598,"(1.2184696791468346e-07, 0.0, 0.0, 0.0, 1.2184696791468346e-07, 0.0, 0.0, 0.0, 1.2184696791468346e-07)",0.0909823328257,0.081040263176,9.86137104034,"(8.999999999999999e-08, 0.0, 0.0, 0.0, 8.999999999999999e-08, 0.0, 0.0, 0.0, 8.999999999999999e-08)"
1970/01/01/01:00:13.804000,159,13,804000000,base_link,0.00107518829023,-0.00162057517773,-0.705102987806,-0.709102313785,"(1.0, 0.0, 0.0, 0.0, 1.0, 0.0, 0.0, 0.0, 1.0)",-0.00983647722751,0.0106939217076,0.000913896306884,"(1.2184696791468346e-07, 0.0, 0.0, 0.0, 1.2184696791468346e-07, 0.0, 0.0, 0.0, 1.2184696791468346e-07)",-0.0674386546016,0.0290280133486,9.74949455261,"(8.999999999999999e-08, 0.0, 0.0, 0.0, 8.999999999999999e-08, 0.0, 0.0, 0.0, 8.999999999999999e-08)"
1970/01/01/01:00:13.823000,160,13,824000000,base_link,0.00108601630541,-0.00166687063026,-0.705110999493,-0.70909413351,"(1.0, 0.0, 0.0, 0.0, 1.0, 0.0, 0.0, 0.0, 1.0)",-0.00186380534433,-0.000384411396226,-0.00208722380921,"(1.2184696791468346e-07, 0.0, 0.0, 0.0, 1.2184696791468346e-07, 0.0, 0.0, 0.0, 1.2184696791468346e-07)",-0.0892161205411,0.0976943001151,9.67900848389,"(8.999999999999999e-08, 0.0, 0.0, 0.0, 8.999999999999999e-08, 0.0, 0.0, 0.0, 8.999999999999999e-08)"
1970/01/01/01:00:13.845000,161,13,845000000,base_link,0.00115580325473,-0.00162357758503,-0.705058039838,-0.709146755991,"(1.0, 0.0, 0.0, 0.0, 1.0, 0.0, 0.0, 0.0, 1.0)",-0.0089824218303,-0.000349836656824,-0.00718921236694,"(1.2184696791468346e-07, 0.0, 0.0, 0.0, 1.2184696791468346e-07, 0.0, 0.0, 0.0, 1.2184696791468346e-07)",0.110751397908,0.0712657868862,9.47177028656,"(8.999999999999999e-08, 0.0, 0.0, 0.0, 8.999999999999999e-08, 0.0, 0.0, 0.0, 8.999999999999999e-08)"
1970/01/01/01:00:13.863000,162,13,863000000,base_link,0.00112147195071,-0.00163145943672,-0.705133808841,-0.709071577044,"(1.0, 0.0, 0.0, 0.0, 1.0, 0.0, 0.0, 0.0, 1.0)",0.00538625055924,6.51022419333e-05,0.0100496215746,"(1.2184696791468346e-07, 0.0, 0.0, 0.0, 1.2184696791468346e-07, 0.0, 0.0, 0.0, 1.2184696791468346e-07)",0.269097507,0.0662455335259,9.33664035797,"(8.999999999999999e-08, 0.0, 0.0, 0.0, 8.999999999999999e-08, 0.0, 0.0, 0.0, 8.999999999999999e-08)"
1970/01/01/01:00:13.884000,163,13,884000000,base_link,0.00112632803733,-0.00158665999151,-0.705195584596,-0.709010138463,"(1.0, 0.0, 0.0, 0.0, 1.0, 0.0, 0.0, 0.0, 1.0)",-0.00591465178877,-0.00522657623515,0.00636637583375,"(1.2184696791468346e-07, 0.0, 0.0, 0.0, 1.2184696791468346e-07, 0.0, 0.0, 0.0, 1.2184696791468346e-07)",0.0393601059914,-0.0583291724324,9.35012722015,"(8.999999999999999e-08, 0.0, 0.0, 0.0, 8.999999999999999e-08, 0.0, 0.0, 0.0, 8.999999999999999e-08)"
1970/01/01/01:00:13.903000,164,13,903000000,base_link,0.00116189594389,-0.00152937312244,-0.705239373196,-0.708966687038,"(1.0, 0.0, 0.0, 0.0, 1.0, 0.0, 0.0, 0.0, 1.0)",-0.00931570027024,-0.00353695708327,0.00548481009901,"(1.2184696791468346e-07, 0.0, 0.0, 0.0, 1.2184696791468346e-07, 0.0, 0.0, 0.0, 1.2184696791468346e-07)",0.0879378393292,-0.122380658984,9.54312705994,"(8.999999999999999e-08, 0.0, 0.0, 0.0, 8.999999999999999e-08, 0.0, 0.0, 0.0, 8.999999999999999e-08)"
1970/01/01/01:00:13.923000,165,13,923000000,base_link,0.00115291467273,-0.00151216588951,-0.705301002096,-0.708905479606,"(1.0, 0.0, 0.0, 0.0, 1.0, 0.0, 0.0, 0.0, 1.0)",0.0023199361749,-0.00403853971511,0.0101164020598,"(1.2184696791468346e-07, 0.0, 0.0, 0.0, 1.2184696791468346e-07, 0.0, 0.0, 0.0, 1.2184696791468346e-07)",0.0148589210585,0.0934213921428,9.57680988312,"(8.999999999999999e-08, 0.0, 0.0, 0.0, 8.999999999999999e-08, 0.0, 0.0, 0.0, 8.999999999999999e-08)"
1970/01/01/01:00:13.946000,166,13,946000000,base_link,0.00118891160045,-0.00154545969783,-0.705347251019,-0.708859314978,"(1.0, 0.0, 0.0, 0.0, 1.0, 0.0, 0.0, 0.0, 1.0)",0.00302619067952,0.00364356394857,-0.00421237573028,"(1.2184696791468346e-07, 0.0, 0.0, 0.0, 1.2184696791468346e-07, 0.0, 0.0, 0.0, 1.2184696791468346e-07)",0.136996775866,-0.0170638989657,9.81159305573,"(8.999999999999999e-08, 0.0, 0.0, 0.0, 8.999999999999999e-08, 0.0, 0.0, 0.0, 8.999999999999999e-08)"
1970/01/01/01:00:13.964000,167,13,964000000,base_link,0.00116237200983,-0.00153168632176,-0.705300915498,-0.708905481911,"(1.0, 0.0, 0.0, 0.0, 1.0, 0.0, 0.0, 0.0, 1.0)",0.000129079911858,-0.00343124987558,-0.00388320954517,"(1.2184696791468346e-07, 0.0, 0.0, 0.0, 1.2184696791468346e-07, 0.0, 0.0, 0.0, 1.2184696791468346e-07)",0.114639438689,-0.0389446616173,9.80852031708,"(8.999999999999999e-08, 0.0, 0.0, 0.0, 8.999999999999999e-08, 0.0, 0.0, 0.0, 8.999999999999999e-08)"
1970/01/01/01:00:13.983000,168,13,983000000,base_link,0.00120904200955,-0.00165260947851,-0.705336351448,-0.708869877373,"(1.0, 0.0, 0.0, 0.0, 1.0, 0.0, 0.0, 0.0, 1.0)",0.0042232288979,0.00946168787777,-0.00147449481301,"(1.2184696791468346e-07, 0.0, 0.0, 0.0, 1.2184696791468346e-07, 0.0, 0.0, 0.0, 1.2184696791468346e-07)",0.146538823843,0.0400356948376,9.79478549957,"(8.999999999999999e-08, 0.0, 0.0, 0.0, 8.999999999999999e-08, 0.0, 0.0, 0.0, 8.999999999999999e-08)"
1970/01/01/01:00:14.004000,169,14,3000000,base_link,0.0012116431163,-0.00170673342004,-0.705327375157,-0.70887876937,"(1.0, 0.0, 0.0, 0.0, 1.0, 0.0, 0.0, 0.0, 1.0)",0.0029009107966,0.00219684373587,-0.00380254210904,"(1.2184696791468346e-07, 0.0, 0.0, 0.0, 1.2184696791468346e-07, 0.0, 0.0, 0.0, 1.2184696791468346e-07)",0.0593737848103,-0.0766815319657,9.83325004578,"(8.999999999999999e-08, 0.0, 0.0, 0.0, 8.999999999999999e-08, 0.0, 0.0, 0.0, 8.999999999999999e-08)"
1970/01/01/01:00:14.023000,170,14,23000000,base_link,0.00125377129919,-0.00177610735907,-0.70534329152,-0.708862684421,"(1.0, 0.0, 0.0, 0.0, 1.0, 0.0, 0.0, 0.0, 1.0)",-0.000512822065502,0.00249034794979,-0.00200512493029,"(1.2184696791468346e-07, 0.0, 0.0, 0.0, 1.2184696791468346e-07, 0.0, 0.0, 0.0, 1.2184696791468346e-07)",-0.000619714148343,0.14456667006,9.76824092865,"(8.999999999999999e-08, 0.0, 0.0, 0.0, 8.999999999999999e-08, 0.0, 0.0, 0.0, 8.999999999999999e-08)"
1970/01/01/01:00:14.045000,171,14,45000000,base_link,0.00127066632028,-0.00176676222149,-0.705385149926,-0.708820994602,"(1.0, 0.0, 0.0, 0.0, 1.0, 0.0, 0.0, 0.0, 1.0)",-0.00158021762036,0.00859428849071,0.00687389448285,"(1.2184696791468346e-07, 0.0, 0.0, 0.0, 1.2184696791468346e-07, 0.0, 0.0, 0.0, 1.2184696791468346e-07)",0.0126748746261,-0.0850795954466,9.75096988678,"(8.999999999999999e-08, 0.0, 0.0, 0.0, 8.999999999999999e-08, 0.0, 0.0, 0.0, 8.999999999999999e-08)"
1970/01/01/01:00:14.062000,172,14,63000000,base_link,0.0013019901956,-0.00188213111096,-0.705435617649,-0.708770442585,"(1.0, 0.0, 0.0, 0.0, 1.0, 0.0, 0.0, 0.0, 1.0)",0.00524299358949,0.00710303056985,0.00515687279403,"(1.2184696791468346e-07, 0.0, 0.0, 0.0, 1.2184696791468346e-07, 0.0, 0.0, 0.0, 1.2184696791468346e-07)",0.15016657114,0.0788681432605,10.0326967239,"(8.999999999999999e-08, 0.0, 0.0, 0.0, 8.999999999999999e-08, 0.0, 0.0, 0.0, 8.999999999999999e-08)"
1970/01/01/01:00:14.084000,173,14,84000000,base_link,0.00137199082204,-0.00188333692653,-0.705421282452,-0.708784440607,"(1.0, 0.0, 0.0, 0.0, 1.0, 0.0, 0.0, 0.0, 1.0)",-0.0067714266479,0.00515832751989,-0.00678188819438,"(1.2184696791468346e-07, 0.0, 0.0, 0.0, 1.2184696791468346e-07, 0.0, 0.0, 0.0, 1.2184696791468346e-07)",0.223898917437,0.0986732393503,9.87956142426,"(8.999999999999999e-08, 0.0, 0.0, 0.0, 8.999999999999999e-08, 0.0, 0.0, 0.0, 8.999999999999999e-08)"
1970/01/01/01:00:14.103000,174,14,103000000,base_link,0.00141526507817,-0.00192983875045,-0.70542506151,-0.708780577256,"(1.0, 0.0, 0.0, 0.0, 1.0, 0.0, 0.0, 0.0, 1.0)",0.00433091586456,0.00663908943534,-0.0053436444141,"(1.2184696791468346e-07, 0.0, 0.0, 0.0, 1.2184696791468346e-07, 0.0, 0.0, 0.0, 1.2184696791468346e-07)",0.0639638453722,-0.0190692059696,9.98902702332,"(8.999999999999999e-08, 0.0, 0.0, 0.0, 8.999999999999999e-08, 0.0, 0.0, 0.0, 8.999999999999999e-08)"
1970/01/01/01:00:14.123000,175,14,123000000,base_link,0.00149372822791,-0.00197574469449,-0.705402837114,-0.708802295889,"(1.0, 0.0, 0.0, 0.0, 1.0, 0.0, 0.0, 0.0, 1.0)",-0.00191932416055,0.00452078366652,0.00215460406616,"(1.2184696791468346e-07, 0.0, 0.0, 0.0, 1.2184696791468346e-07, 0.0, 0.0, 0.0, 1.2184696791468346e-07)",0.0893618091941,0.01865452528,9.72396183014,"(8.999999999999999e-08, 0.0, 0.0, 0.0, 8.999999999999999e-08, 0.0, 0.0, 0.0, 8.999999999999999e-08)"
1970/01/01/01:00:14.145000,176,14,145000000,base_link,0.00144919390861,-0.00196968106362,-0.70544887415,-0.708756680322,"(1.0, 0.0, 0.0, 0.0, 1.0, 0.0, 0.0, 0.0, 1.0)",0.00504222651944,-0.00162113201804,0.0044731348753,"(1.2184696791468346e-07, 0.0, 0.0, 0.0, 1.2184696791468346e-07, 0.0, 0.0, 0.0, 1.2184696791468346e-07)",0.0428101755679,0.0145749459043,9.71515464783,"(8.999999999999999e-08, 0.0, 0.0, 0.0, 8.999999999999999e-08, 0.0, 0.0, 0.0, 8.999999999999999e-08)"
1970/01/01/01:00:14.163000,177,14,163000000,base_link,0.00145999603475,-0.00200173668478,-0.70542026994,-0.708785031651,"(1.0, 0.0, 0.0, 0.0, 1.0, 0.0, 0.0, 0.0, 1.0)",-0.000359962141374,-0.00176691869274,-0.0073731681332,"(1.2184696791468346e-07, 0.0, 0.0, 0.0, 1.2184696791468346e-07, 0.0, 0.0, 0.0, 1.2184696791468346e-07)",0.144763723016,0.00536311417818,9.77314662933,"(8.999999999999999e-08, 0.0, 0.0, 0.0, 8.999999999999999e-08, 0.0, 0.0, 0.0, 8.999999999999999e-08)"
1970/01/01/01:00:14.183000,178,14,183000000,base_link,0.00147232608705,-0.00204987385993,-0.705484765813,-0.708720620071,"(1.0, 0.0, 0.0, 0.0, 1.0, 0.0, 0.0, 0.0, 1.0)",0.00246998108923,0.00242667179555,0.00493260566145,"(1.2184696791468346e-07, 0.0, 0.0, 0.0, 1.2184696791468346e-07, 0.0, 0.0, 0.0, 1.2184696791468346e-07)",0.111723490059,0.00914307683706,9.70304870605,"(8.999999999999999e-08, 0.0, 0.0, 0.0, 8.999999999999999e-08, 0.0, 0.0, 0.0, 8.999999999999999e-08)"
1970/01/01/01:00:14.203000,179,14,203000000,base_link,0.00151402286155,-0.00212665944986,-0.705549050294,-0.708656335591,"(1.0, 0.0, 0.0, 0.0, 1.0, 0.0, 0.0, 0.0, 1.0)",-0.000185296870768,0.00975408218801,0.00653613405302,"(1.2184696791468346e-07, 0.0, 0.0, 0.0, 1.2184696791468346e-07, 0.0, 0.0, 0.0, 1.2184696791468346e-07)",0.0916689708829,-0.0386186763644,9.67090415955,"(8.999999999999999e-08, 0.0, 0.0, 0.0, 8.999999999999999e-08, 0.0, 0.0, 0.0, 8.999999999999999e-08)"
1970/01/01/01:00:14.223000,180,14,223000000,base_link,0.00154213246344,-0.00209526897923,-0.705542641009,-0.708662744875,"(1.0, 0.0, 0.0, 0.0, 1.0, 0.0, 0.0, 0.0, 1.0)",-0.00480353878811,-0.00473590334877,-0.00327636324801,"(1.2184696791468346e-07, 0.0, 0.0, 0.0, 1.2184696791468346e-07, 0.0, 0.0, 0.0, 1.2184696791468346e-07)",0.0305336229503,0.0196793675423,9.76420402527,"(8.999999999999999e-08, 0.0, 0.0, 0.0, 8.999999999999999e-08, 0.0, 0.0, 0.0, 8.999999999999999e-08)"
1970/01/01/01:00:14.245000,181,14,245000000,base_link,0.00157309899604,-0.00211399917865,-0.705535158791,-0.708670142799,"(1.0, 0.0, 0.0, 0.0, 1.0, 0.0, 0.0, 0.0, 1.0)",-0.000442590680905,0.000114964292152,-0.00193317071535,"(1.2184696791468346e-07, 0.0, 0.0, 0.0, 1.2184696791468346e-07, 0.0, 0.0, 0.0, 1.2184696791468346e-07)",-0.0262454897165,-0.0364197716117,9.52682971954,"(8.999999999999999e-08, 0.0, 0.0, 0.0, 8.999999999999999e-08, 0.0, 0.0, 0.0, 8.999999999999999e-08)"
1970/01/01/01:00:14.263000,182,14,263000000,base_link,0.00156332137994,-0.00218197401928,-0.705538520496,-0.708666528213,"(1.0, 0.0, 0.0, 0.0, 1.0, 0.0, 0.0, 0.0, 1.0)",0.00918092019856,0.00154870410915,-0.00104856141843,"(1.2184696791468346e-07, 0.0, 0.0, 0.0, 1.2184696791468346e-07, 0.0, 0.0, 0.0, 1.2184696791468346e-07)",0.0582390390337,0.134882777929,9.74545574188,"(8.999999999999999e-08, 0.0, 0.0, 0.0, 8.999999999999999e-08, 0.0, 0.0, 0.0, 8.999999999999999e-08)"
1970/01/01/01:00:14.283000,183,14,283000000,base_link,0.00158171633905,-0.00221508415542,-0.705524353558,-0.708680442271,"(1.0, 0.0, 0.0, 0.0, 1.0, 0.0, 0.0, 0.0, 1.0)",0.000306394969812,0.00161844701506,-0.00292617455125,"(1.2184696791468346e-07, 0.0, 0.0, 0.0, 1.2184696791468346e-07, 0.0, 0.0, 0.0, 1.2184696791468346e-07)",-0.00267281802371,0.103547543287,9.66149520874,"(8.999999999999999e-08, 0.0, 0.0, 0.0, 8.999999999999999e-08, 0.0, 0.0, 0.0, 8.999999999999999e-08)"
1970/01/01/01:00:14.303000,184,14,303000000,base_link,0.00161202675552,-0.00221014251975,-0.705542385823,-0.708662494299,"(1.0, 0.0, 0.0, 0.0, 1.0, 0.0, 0.0, 0.0, 1.0)",-0.00299374922179,-0.00393507163972,-0.000507279124577,"(1.2184696791468346e-07, 0.0, 0.0, 0.0, 1.2184696791468346e-07, 0.0, 0.0, 0.0, 1.2184696791468346e-07)",0.0425248220563,0.00370998727158,9.94013404846,"(8.999999999999999e-08, 0.0, 0.0, 0.0, 8.999999999999999e-08, 0.0, 0.0, 0.0, 8.999999999999999e-08)"
1970/01/01/01:00:14.323000,185,14,323000000,base_link,0.00167501873972,-0.0022611182481,-0.705587749662,-0.708616961873,"(1.0, 0.0, 0.0, 0.0, 1.0, 0.0, 0.0, 0.0, 1.0)",0.00192595645785,-0.00528115779161,0.00181334139779,"(1.2184696791468346e-07, 0.0, 0.0, 0.0, 1.2184696791468346e-07, 0.0, 0.0, 0.0, 1.2184696791468346e-07)",-0.0323702059686,0.0633315145969,9.84267997742,"(8.999999999999999e-08, 0.0, 0.0, 0.0, 8.999999999999999e-08, 0.0, 0.0, 0.0, 8.999999999999999e-08)"
1970/01/01/01:00:14.345000,186,14,345000000,base_link,0.00161791585152,-0.00231252472631,-0.705565305806,-0.708639321435,"(1.0, 0.0, 0.0, 0.0, 1.0, 0.0, 0.0, 0.0, 1.0)",0.0110591929406,0.00351237086579,-0.00662940647453,"(1.2184696791468346e-07, 0.0, 0.0, 0.0, 1.2184696791468346e-07, 0.0, 0.0, 0.0, 1.2184696791468346e-07)",0.0162233188748,-0.0527873337269,9.7452583313,"(8.999999999999999e-08, 0.0, 0.0, 0.0, 8.999999999999999e-08, 0.0, 0.0, 0.0, 8.999999999999999e-08)"
1970/01/01/01:00:14.363000,187,14,363000000,base_link,0.00161087440553,-0.00231643578098,-0.705599396186,-0.708605483936,"(1.0, 0.0, 0.0, 0.0, 1.0, 0.0, 0.0, 0.0, 1.0)",-0.00209262082353,-0.0018958367873,0.0023404234089,"(1.2184696791468346e-07, 0.0, 0.0, 0.0, 1.2184696791468346e-07, 0.0, 0.0, 0.0, 1.2184696791468346e-07)",0.0307154227048,0.0860329568386,9.5197019577,"(8.999999999999999e-08, 0.0, 0.0, 0.0, 8.999999999999999e-08, 0.0, 0.0, 0.0, 8.999999999999999e-08)"
1970/01/01/01:00:14.383000,188,14,383000000,base_link,0.00163946902545,-0.00233551418581,-0.705624608892,-0.708580186937,"(1.0, 0.0, 0.0, 0.0, 1.0, 0.0, 0.0, 0.0, 1.0)",-0.00222178711556,3.82071884815e-05,0.0123162157834,"(1.2184696791468346e-07, 0.0, 0.0, 0.0, 1.2184696791468346e-07, 0.0, 0.0, 0.0, 1.2184696791468346e-07)",0.0893996730447,0.075278557837,9.66229724884,"(8.999999999999999e-08, 0.0, 0.0, 0.0, 8.999999999999999e-08, 0.0, 0.0, 0.0, 8.999999999999999e-08)"
1970/01/01/01:00:14.404000,189,14,403000000,base_link,0.00159071862189,-0.00233329950063,-0.705638106091,-0.708566774031,"(1.0, 0.0, 0.0, 0.0, 1.0, 0.0, 0.0, 0.0, 1.0)",0.00508254067972,-0.0016140693333,-0.00814145430923,"(1.2184696791468346e-07, 0.0, 0.0, 0.0, 1.2184696791468346e-07, 0.0, 0.0, 0.0, 1.2184696791468346e-07)",0.0354325957596,0.153541013598,9.6737985611,"(8.999999999999999e-08, 0.0, 0.0, 0.0, 8.999999999999999e-08, 0.0, 0.0, 0.0, 8.999999999999999e-08)"
1970/01/01/01:00:14.423000,190,14,423000000,base_link,0.00160881703017,-0.00235202953541,-0.705655784718,-0.708549095404,"(1.0, 0.0, 0.0, 0.0, 1.0, 0.0, 0.0, 0.0, 1.0)",0.00145014119335,0.00214532902464,0.00216872943565,"(1.2184696791468346e-07, 0.0, 0.0, 0.0, 1.2184696791468346e-07, 0.0, 0.0, 0.0, 1.2184696791468346e-07)",-0.0683189630508,0.0317858830094,9.79919528961,"(8.999999999999999e-08, 0.0, 0.0, 0.0, 8.999999999999999e-08, 0.0, 0.0, 0.0, 8.999999999999999e-08)"
1970/01/01/01:00:14.445000,191,14,444000000,base_link,0.00157266083757,-0.00241082451256,-0.705721680328,-0.708483368382,"(1.0, 0.0, 0.0, 0.0, 1.0, 0.0, 0.0, 0.0, 1.0)",0.00358256697655,0.00328691652976,0.0114366244525,"(1.2184696791468346e-07, 0.0, 0.0, 0.0, 1.2184696791468346e-07, 0.0, 0.0, 0.0, 1.2184696791468346e-07)",-0.0590459704399,0.0306799970567,9.83048343658,"(8.999999999999999e-08, 0.0, 0.0, 0.0, 8.999999999999999e-08, 0.0, 0.0, 0.0, 8.999999999999999e-08)"
1970/01/01/01:00:14.463000,192,14,463000000,base_link,0.00171771399117,-0.0023749198428,-0.705750617268,-0.708454347148,"(1.0, 0.0, 0.0, 0.0, 1.0, 0.0, 0.0, 0.0, 1.0)",-0.0160425230861,0.00313969911076,-0.00264652841724,"(1.2184696791468346e-07, 0.0, 0.0, 0.0, 1.2184696791468346e-07, 0.0, 0.0, 0.0, 1.2184696791468346e-07)",-0.0998550206423,0.0697031393647,9.8197183609,"(8.999999999999999e-08, 0.0, 0.0, 0.0, 8.999999999999999e-08, 0.0, 0.0, 0.0, 8.999999999999999e-08)"
1970/01/01/01:00:14.483000,193,14,483000000,base_link,0.00178972768527,-0.00249519587667,-0.705785499382,-0.708418959271,"(1.0, 0.0, 0.0, 0.0, 1.0, 0.0, 0.0, 0.0, 1.0)",0.00347818550654,0.0125799058005,0.00293408869766,"(1.2184696791468346e-07, 0.0, 0.0, 0.0, 1.2184696791468346e-07, 0.0, 0.0, 0.0, 1.2184696791468346e-07)",0.18248835206,-0.021796554327,9.76644420624,"(8.999999999999999e-08, 0.0, 0.0, 0.0, 8.999999999999999e-08, 0.0, 0.0, 0.0, 8.999999999999999e-08)"
1970/01/01/01:00:14.503000,194,14,503000000,base_link,0.00174488212137,-0.00247582281434,-0.705861935079,-0.708343029337,"(1.0, 0.0, 0.0, 0.0, 1.0, 0.0, 0.0, 0.0, 1.0)",0.00242027197964,-0.0117991669104,0.00914193596691,"(1.2184696791468346e-07, 0.0, 0.0, 0.0, 1.2184696791468346e-07, 0.0, 0.0, 0.0, 1.2184696791468346e-07)",0.0656110569835,0.147867590189,9.88217258453,"(8.999999999999999e-08, 0.0, 0.0, 0.0, 8.999999999999999e-08, 0.0, 0.0, 0.0, 8.999999999999999e-08)"
1970/01/01/01:00:14.523000,195,14,523000000,base_link,0.00181145862506,-0.00256051332559,-0.705979379742,-0.70822550038,"(1.0, 0.0, 0.0, 0.0, 1.0, 0.0, 0.0, 0.0, 1.0)",0.00273960037157,0.00955597031862,0.0153604252264,"(1.2184696791468346e-07, 0.0, 0.0, 0.0, 1.2184696791468346e-07, 0.0, 0.0, 0.0, 1.2184696791468346e-07)",0.168898120522,-0.131347715855,9.65317726135,"(8.999999999999999e-08, 0.0, 0.0, 0.0, 8.999999999999999e-08, 0.0, 0.0, 0.0, 8.999999999999999e-08)"
1970/01/01/01:00:14.545000,196,14,545000000,base_link,0.001789839679,-0.00252149283481,-0.706008223169,-0.708196994129,"(1.0, 0.0, 0.0, 0.0, 1.0, 0.0, 0.0, 0.0, 1.0)",-0.00250622699969,-0.00579753192142,-0.000378477328923,"(1.2184696791468346e-07, 0.0, 0.0, 0.0, 1.2184696791468346e-07, 0.0, 0.0, 0.0, 1.2184696791468346e-07)",-0.00590724823996,-0.119206391275,9.76884365082,"(8.999999999999999e-08, 0.0, 0.0, 0.0, 8.999999999999999e-08, 0.0, 0.0, 0.0, 8.999999999999999e-08)"
1970/01/01/01:00:14.563000,197,14,563000000,base_link,0.00178483519349,-0.00251983021572,-0.706044372405,-0.708160929186,"(1.0, 0.0, 0.0, 0.0, 1.0, 0.0, 0.0, 0.0, 1.0)",0.000823179725558,-0.000954562681727,0.0033152308315,"(1.2184696791468346e-07, 0.0, 0.0, 0.0, 1.2184696791468346e-07, 0.0, 0.0, 0.0, 1.2184696791468346e-07)",0.0368701964617,0.0561298914254,9.86705112457,"(8.999999999999999e-08, 0.0, 0.0, 0.0, 8.999999999999999e-08, 0.0, 0.0, 0.0, 8.999999999999999e-08)"
1970/01/01/01:00:14.583000,198,14,583000000,base_link,0.00179423879747,-0.00245055207434,-0.706048375697,-0.708157178775,"(1.0, 0.0, 0.0, 0.0, 1.0, 0.0, 0.0, 0.0, 1.0)",-0.00533868186176,-0.00372956786305,-0.00363626237959,"(1.2184696791468346e-07, 0.0, 0.0, 0.0, 1.2184696791468346e-07, 0.0, 0.0, 0.0, 1.2184696791468346e-07)",0.0709942653775,0.0390639305115,9.63031101227,"(8.999999999999999e-08, 0.0, 0.0, 0.0, 8.999999999999999e-08, 0.0, 0.0, 0.0, 8.999999999999999e-08)"
1970/01/01/01:00:14.603000,199,14,603000000,base_link,0.00177324034439,-0.00244712544089,-0.706113833293,-0.708091889767,"(1.0, 0.0, 0.0, 0.0, 1.0, 0.0, 0.0, 0.0, 1.0)",0.00370434042998,-0.00241579092108,0.00875064358115,"(1.2184696791468346e-07, 0.0, 0.0, 0.0, 1.2184696791468346e-07, 0.0, 0.0, 0.0, 1.2184696791468346e-07)",0.0644785836339,-0.0214445590973,9.77811431885,"(8.999999999999999e-08, 0.0, 0.0, 0.0, 8.999999999999999e-08, 0.0, 0.0, 0.0, 8.999999999999999e-08)"
1970/01/01/01:00:14.623000,200,14,623000000,base_link,0.00176788405206,-0.00250292163273,-0.706131573906,-0.708073980566,"(1.0, 0.0, 0.0, 0.0, 1.0, 0.0, 0.0, 0.0, 1.0)",0.0115269776434,0.00333954812959,-0.000585612026043,"(1.2184696791468346e-07, 0.0, 0.0, 0.0, 1.2184696791468346e-07, 0.0, 0.0, 0.0, 1.2184696791468346e-07)",0.0298791173846,0.300285667181,9.60743331909,"(8.999999999999999e-08, 0.0, 0.0, 0.0, 8.999999999999999e-08, 0.0, 0.0, 0.0, 8.999999999999999e-08)"
1970/01/01/01:00:14.643000,201,14,643000000,base_link,0.00177400896873,-0.00257316911046,-0.70613869343,-0.708066776748,"(1.0, 0.0, 0.0, 0.0, 1.0, 0.0, 0.0, 0.0, 1.0)",0.000885880726855,0.00275196367875,-0.000898749567568,"(1.2184696791468346e-07, 0.0, 0.0, 0.0, 1.2184696791468346e-07, 0.0, 0.0, 0.0, 1.2184696791468346e-07)",0.12136952579,-0.0820568278432,9.90238761902,"(8.999999999999999e-08, 0.0, 0.0, 0.0, 8.999999999999999e-08, 0.0, 0.0, 0.0, 8.999999999999999e-08)"
1970/01/01/01:00:14.664000,202,14,663000000,base_link,0.00183615741915,-0.002528316673,-0.706136892064,-0.70806849382,"(1.0, 0.0, 0.0, 0.0, 1.0, 0.0, 0.0, 0.0, 1.0)",-0.0113362930715,0.000626549008302,-0.003426019568,"(1.2184696791468346e-07, 0.0, 0.0, 0.0, 1.2184696791468346e-07, 0.0, 0.0, 0.0, 1.2184696791468346e-07)",-0.0339247956872,0.0202265325934,9.73317432404,"(8.999999999999999e-08, 0.0, 0.0, 0.0, 8.999999999999999e-08, 0.0, 0.0, 0.0, 8.999999999999999e-08)"
1970/01/01/01:00:14.683000,203,14,683000000,base_link,0.0018555640261,-0.00261119816248,-0.706108247024,-0.708096717392,"(1.0, 0.0, 0.0, 0.0, 1.0, 0.0, 0.0, 0.0, 1.0)",0.00547249428928,0.00796830654144,-0.00514244381338,"(1.2184696791468346e-07, 0.0, 0.0, 0.0, 1.2184696791468346e-07, 0.0, 0.0, 0.0, 1.2184696791468346e-07)",-0.0503330044448,-0.0577358976006,9.58916378021,"(8.999999999999999e-08, 0.0, 0.0, 0.0, 8.999999999999999e-08, 0.0, 0.0, 0.0, 8.999999999999999e-08)"
1970/01/01/01:00:14.704000,204,14,704000000,base_link,0.00182285296793,-0.00264227471318,-0.706151845881,-0.708053202829,"(1.0, 0.0, 0.0, 0.0, 1.0, 0.0, 0.0, 0.0, 1.0)",0.00321805477142,-0.00140174757689,0.00731654418632,"(1.2184696791468346e-07, 0.0, 0.0, 0.0, 1.2184696791468346e-07, 0.0, 0.0, 0.0, 1.2184696791468346e-07)",-0.0319650322199,0.0195690523833,9.45812129974,"(8.999999999999999e-08, 0.0, 0.0, 0.0, 8.999999999999999e-08, 0.0, 0.0, 0.0, 8.999999999999999e-08)"
1970/01/01/01:00:14.723000,205,14,723000000,base_link,0.00193549037942,-0.00265304656686,-0.706077774441,-0.708126684213,"(1.0, 0.0, 0.0, 0.0, 1.0, 0.0, 0.0, 0.0, 1.0)",-0.00387008255348,0.011558723636,-0.0144916176796,"(1.2184696791468346e-07, 0.0, 0.0, 0.0, 1.2184696791468346e-07, 0.0, 0.0, 0.0, 1.2184696791468346e-07)",-0.0210892725736,-0.140629470348,9.73527526855,"(8.999999999999999e-08, 0.0, 0.0, 0.0, 8.999999999999999e-08, 0.0, 0.0, 0.0, 8.999999999999999e-08)"
1970/01/01/01:00:14.745000,206,14,745000000,base_link,0.00186906739892,-0.00276203753508,-0.706085953564,-0.708118252209,"(1.0, 0.0, 0.0, 0.0, 1.0, 0.0, 0.0, 0.0, 1.0)",0.00889279693365,0.000839753367472,0.0099205635488,"(1.2184696791468346e-07, 0.0, 0.0, 0.0, 1.2184696791468346e-07, 0.0, 0.0, 0.0, 1.2184696791468346e-07)",0.0506647564471,0.0522122904658,9.69371986389,"(8.999999999999999e-08, 0.0, 0.0, 0.0, 8.999999999999999e-08, 0.0, 0.0, 0.0, 8.999999999999999e-08)"
1970/01/01/01:00:14.762000,207,14,763000000,base_link,0.00186456682343,-0.00277832045963,-0.706113037606,-0.708091336754,"(1.0, 0.0, 0.0, 0.0, 1.0, 0.0, 0.0, 0.0, 1.0)",0.00236490182579,-0.000604690692853,0.00232110894285,"(1.2184696791468346e-07, 0.0, 0.0, 0.0, 1.2184696791468346e-07, 0.0, 0.0, 0.0, 1.2184696791468346e-07)",0.133487850428,0.0672795474529,9.68639564514,"(8.999999999999999e-08, 0.0, 0.0, 0.0, 8.999999999999999e-08, 0.0, 0.0, 0.0, 8.999999999999999e-08)"
1970/01/01/01:00:14.783000,208,14,783000000,base_link,0.00187537658458,-0.00281313334491,-0.706092739618,-0.708111297567,"(1.0, 0.0, 0.0, 0.0, 1.0, 0.0, 0.0, 0.0, 1.0)",0.00359621085227,0.00465026078746,-0.00236990908161,"(1.2184696791468346e-07, 0.0, 0.0, 0.0, 1.2184696791468346e-07, 0.0, 0.0, 0.0, 1.2184696791468346e-07)",-0.0508366376162,0.134100675583,9.60006046295,"(8.999999999999999e-08, 0.0, 0.0, 0.0, 8.999999999999999e-08, 0.0, 0.0, 0.0, 8.999999999999999e-08)"
1970/01/01/01:00:14.803000,209,14,803000000,base_link,0.00194994971191,-0.00288148281506,-0.706122582962,-0.708081201342,"(1.0, 0.0, 0.0, 0.0, 1.0, 0.0, 0.0, 0.0, 1.0)",-0.00418864935637,0.0121865067631,0.00696508772671,"(1.2184696791468346e-07, 0.0, 0.0, 0.0, 1.2184696791468346e-07, 0.0, 0.0, 0.0, 1.2184696791468346e-07)",0.0346841849387,0.036209795624,9.65588188171,"(8.999999999999999e-08, 0.0, 0.0, 0.0, 8.999999999999999e-08, 0.0, 0.0, 0.0, 8.999999999999999e-08)"
1970/01/01/01:00:14.823000,210,14,823000000,base_link,0.0019798871864,-0.00291939287632,-0.706172666918,-0.708031033092,"(1.0, 0.0, 0.0, 0.0, 1.0, 0.0, 0.0, 0.0, 1.0)",-0.000917312398087,0.00251655350439,0.00487576704472,"(1.2184696791468346e-07, 0.0, 0.0, 0.0, 1.2184696791468346e-07, 0.0, 0.0, 0.0, 1.2184696791468346e-07)",-0.00418844213709,0.136341318488,9.74560070038,"(8.999999999999999e-08, 0.0, 0.0, 0.0, 8.999999999999999e-08, 0.0, 0.0, 0.0, 8.999999999999999e-08)"
1970/01/01/01:00:14.845000,211,14,845000000,base_link,0.00190866629757,-0.00302699703213,-0.706187803481,-0.708015559354,"(1.0, 0.0, 0.0, 0.0, 1.0, 0.0, 0.0, 0.0, 1.0)",0.0103360163048,-0.0014270945685,0.00258481595665,"(1.2184696791468346e-07, 0.0, 0.0, 0.0, 1.2184696791468346e-07, 0.0, 0.0, 0.0, 1.2184696791468346e-07)",-0.129263654351,-0.0180475786328,9.68727970123,"(8.999999999999999e-08, 0.0, 0.0, 0.0, 8.999999999999999e-08, 0.0, 0.0, 0.0, 8.999999999999999e-08)"
1970/01/01/01:00:14.863000,212,14,863000000,base_link,0.00188510625041,-0.0029728517908,-0.706279428919,-0.707924523973,"(1.0, 0.0, 0.0, 0.0, 1.0, 0.0, 0.0, 0.0, 1.0)",-0.00567524833605,-0.00817039608955,0.00667487550527,"(1.2184696791468346e-07, 0.0, 0.0, 0.0, 1.2184696791468346e-07, 0.0, 0.0, 0.0, 1.2184696791468346e-07)",0.0410853661597,0.105830289423,9.78773593903,"(8.999999999999999e-08, 0.0, 0.0, 0.0, 8.999999999999999e-08, 0.0, 0.0, 0.0, 8.999999999999999e-08)"
1970/01/01/01:00:14.883000,213,14,883000000,base_link,0.00189485447897,-0.00299872818594,-0.706289603761,-0.707914180543,"(1.0, 0.0, 0.0, 0.0, 1.0, 0.0, 0.0, 0.0, 1.0)",0.00165316811763,0.0019652529154,0.000187985162484,"(1.2184696791468346e-07, 0.0, 0.0, 0.0, 1.2184696791468346e-07, 0.0, 0.0, 0.0, 1.2184696791468346e-07)",0.286126881838,0.0244406014681,9.78215885162,"(8.999999999999999e-08, 0.0, 0.0, 0.0, 8.999999999999999e-08, 0.0, 0.0, 0.0, 8.999999999999999e-08)"
1970/01/01/01:00:14.903000,214,14,903000000,base_link,0.00188342461585,-0.00310302961757,-0.706365911783,-0.707837535347,"(1.0, 0.0, 0.0, 0.0, 1.0, 0.0, 0.0, 0.0, 1.0)",0.0062389425002,-0.0011233339319,0.00912309903651,"(1.2184696791468346e-07, 0.0, 0.0, 0.0, 1.2184696791468346e-07, 0.0, 0.0, 0.0, 1.2184696791468346e-07)",0.0475998595357,0.0437955707312,9.78379058838,"(8.999999999999999e-08, 0.0, 0.0, 0.0, 8.999999999999999e-08, 0.0, 0.0, 0.0, 8.999999999999999e-08)"
1970/01/01/01:00:14.924000,215,14,923000000,base_link,0.0017819475993,-0.0031855724917,-0.706405485369,-0.707797961761,"(1.0, 0.0, 0.0, 0.0, 1.0, 0.0, 0.0, 0.0, 1.0)",0.0106647890061,-0.000226269214181,0.00793667975813,"(1.2184696791468346e-07, 0.0, 0.0, 0.0, 1.2184696791468346e-07, 0.0, 0.0, 0.0, 1.2184696791468346e-07)",0.00276410835795,-0.00632562302053,9.72542572021,"(8.999999999999999e-08, 0.0, 0.0, 0.0, 8.999999999999999e-08, 0.0, 0.0, 0.0, 8.999999999999999e-08)"
1970/01/01/01:00:14.945000,216,14,945000000,base_link,0.00175189146332,-0.00320115744139,-0.706422712646,-0.707780734484,"(1.0, 0.0, 0.0, 0.0, 1.0, 0.0, 0.0, 0.0, 1.0)",0.00515552284196,-0.00314372777939,-0.000781392329372,"(1.2184696791468346e-07, 0.0, 0.0, 0.0, 1.2184696791468346e-07, 0.0, 0.0, 0.0, 1.2184696791468346e-07)",0.0891010686755,0.106488876045,9.93476867676,"(8.999999999999999e-08, 0.0, 0.0, 0.0, 8.999999999999999e-08, 0.0, 0.0, 0.0, 8.999999999999999e-08)"
1970/01/01/01:00:14.963000,217,14,963000000,base_link,0.00181103966728,-0.0031696700824,-0.70639690618,-0.70780654095,"(1.0, 0.0, 0.0, 0.0, 1.0, 0.0, 0.0, 0.0, 1.0)",-0.00724200811237,0.00449511967599,-0.00201723491773,"(1.2184696791468346e-07, 0.0, 0.0, 0.0, 1.2184696791468346e-07, 0.0, 0.0, 0.0, 1.2184696791468346e-07)",-0.0130284251645,0.0518194809556,9.47352027893,"(8.999999999999999e-08, 0.0, 0.0, 0.0, 8.999999999999999e-08, 0.0, 0.0, 0.0, 8.999999999999999e-08)"
1970/01/01/01:00:14.983000,218,14,983000000,base_link,0.00192216802402,-0.00332226970331,-0.706420950545,-0.707781569353,"(1.0, 0.0, 0.0, 0.0, 1.0, 0.0, 0.0, 0.0, 1.0)",0.00596730737016,0.0174605622888,0.00549290608615,"(1.2184696791468346e-07, 0.0, 0.0, 0.0, 1.2184696791468346e-07, 0.0, 0.0, 0.0, 1.2184696791468346e-07)",0.0326267592609,0.129394635558,9.46276950836,"(8.999999999999999e-08, 0.0, 0.0, 0.0, 8.999999999999999e-08, 0.0, 0.0, 0.0, 8.999999999999999e-08)"
1970/01/01/01:00:15.003000,219,15,3000000,base_link,0.00191582870995,-0.00331883457052,-0.706423673421,-0.707778846478,"(1.0, 0.0, 0.0, 0.0, 1.0, 0.0, 0.0, 0.0, 1.0)",-0.000701823621057,-0.00884188525379,0.00164708436932,"(1.2184696791468346e-07, 0.0, 0.0, 0.0, 1.2184696791468346e-07, 0.0, 0.0, 0.0, 1.2184696791468346e-07)",-0.148928016424,-0.140420511365,9.53199768066,"(8.999999999999999e-08, 0.0, 0.0, 0.0, 8.999999999999999e-08, 0.0, 0.0, 0.0, 8.999999999999999e-08)"
1970/01/01/01:00:15.023000,220,15,23000000,base_link,0.00194603359468,-0.00337179233263,-0.706393992285,-0.707808190439,"(1.0, 0.0, 0.0, 0.0, 1.0, 0.0, 0.0, 0.0, 1.0)",-0.000169614650076,0.00707289809361,-0.00830525811762,"(1.2184696791468346e-07, 0.0, 0.0, 0.0, 1.2184696791468346e-07, 0.0, 0.0, 0.0, 1.2184696791468346e-07)",0.107015386224,0.0487244278193,9.38218402863,"(8.999999999999999e-08, 0.0, 0.0, 0.0, 8.999999999999999e-08, 0.0, 0.0, 0.0, 8.999999999999999e-08)"
1970/01/01/01:00:15.045000,221,15,45000000,base_link,0.00193435471942,-0.00327408498948,-0.706372678821,-0.707829925371,"(1.0, 0.0, 0.0, 0.0, 1.0, 0.0, 0.0, 0.0, 1.0)",-0.00697207450867,-0.00962208677083,-0.00449014082551,"(1.2184696791468346e-07, 0.0, 0.0, 0.0, 1.2184696791468346e-07, 0.0, 0.0, 0.0, 1.2184696791468346e-07)",0.224714279175,0.041777100414,9.55409145355,"(8.999999999999999e-08, 0.0, 0.0, 0.0, 8.999999999999999e-08, 0.0, 0.0, 0.0, 8.999999999999999e-08)"
1970/01/01/01:00:15.063000,222,15,63000000,base_link,0.00194075832389,-0.00331991351338,-0.706371033777,-0.707831401828,"(1.0, 0.0, 0.0, 0.0, 1.0, 0.0, 0.0, 0.0, 1.0)",0.00240240804851,0.00355014624074,-0.00328273721971,"(1.2184696791468346e-07, 0.0, 0.0, 0.0, 1.2184696791468346e-07, 0.0, 0.0, 0.0, 1.2184696791468346e-07)",0.0238243099302,0.0313824266195,9.68188762665,"(8.999999999999999e-08, 0.0, 0.0, 0.0, 8.999999999999999e-08, 0.0, 0.0, 0.0, 8.999999999999999e-08)"
1970/01/01/01:00:15.084000,223,15,83000000,base_link,0.0019079195081,-0.00339309970482,-0.706349674545,-0.707852339592,"(1.0, 0.0, 0.0, 0.0, 1.0, 0.0, 0.0, 0.0, 1.0)",0.0083021055907,0.00177426461596,-0.00451711472124,"(1.2184696791468346e-07, 0.0, 0.0, 0.0, 1.2184696791468346e-07, 0.0, 0.0, 0.0, 1.2184696791468346e-07)",-0.177579313517,0.0480556599796,9.74475193024,"(8.999999999999999e-08, 0.0, 0.0, 0.0, 8.999999999999999e-08, 0.0, 0.0, 0.0, 8.999999999999999e-08)"
1970/01/01/01:00:15.103000,224,15,103000000,base_link,0.00192989258647,-0.00341017996213,-0.706316636601,-0.707885208948,"(1.0, 0.0, 0.0, 0.0, 1.0, 0.0, 0.0, 0.0, 1.0)",-0.00571287795901,-0.000461347226519,-0.00657127751037,"(1.2184696791468346e-07, 0.0, 0.0, 0.0, 1.2184696791468346e-07, 0.0, 0.0, 0.0, 1.2184696791468346e-07)",-0.0634987801313,-0.0741024315357,9.87381649017,"(8.999999999999999e-08, 0.0, 0.0, 0.0, 8.999999999999999e-08, 0.0, 0.0, 0.0, 8.999999999999999e-08)"
1970/01/01/01:00:15.124000,225,15,123000000,base_link,0.00199001819395,-0.00343816958545,-0.706284255309,-0.707917253065,"(1.0, 0.0, 0.0, 0.0, 1.0, 0.0, 0.0, 0.0, 1.0)",-0.00451045110822,0.00928618572652,-0.00976768508554,"(1.2184696791468346e-07, 0.0, 0.0, 0.0, 1.2184696791468346e-07, 0.0, 0.0, 0.0, 1.2184696791468346e-07)",-0.0664863660932,0.146498262882,10.0598497391,"(8.999999999999999e-08, 0.0, 0.0, 0.0, 8.999999999999999e-08, 0.0, 0.0, 0.0, 8.999999999999999e-08)"
1970/01/01/01:00:15.145000,226,15,145000000,base_link,0.00206915412923,-0.00342831845931,-0.706343373591,-0.70785805049,"(1.0, 0.0, 0.0, 0.0, 1.0, 0.0, 0.0, 0.0, 1.0)",-0.00432044174522,0.00328962923959,0.0129257962108,"(1.2184696791468346e-07, 0.0, 0.0, 0.0, 1.2184696791468346e-07, 0.0, 0.0, 0.0, 1.2184696791468346e-07)",0.0361255072057,0.0813515111804,10.0531072617,"(8.999999999999999e-08, 0.0, 0.0, 0.0, 8.999999999999999e-08, 0.0, 0.0, 0.0, 8.999999999999999e-08)"
1970/01/01/01:00:15.164000,227,15,163000000,base_link,0.00213475182999,-0.00344827523903,-0.706357255544,-0.707843999949,"(1.0, 0.0, 0.0, 0.0, 1.0, 0.0, 0.0, 0.0, 1.0)",-0.00444103777409,0.00817250274122,-0.000750456063543,"(1.2184696791468346e-07, 0.0, 0.0, 0.0, 1.2184696791468346e-07, 0.0, 0.0, 0.0, 1.2184696791468346e-07)",0.139465510845,-0.0551970936358,10.3651075363,"(8.999999999999999e-08, 0.0, 0.0, 0.0, 8.999999999999999e-08, 0.0, 0.0, 0.0, 8.999999999999999e-08)"
1970/01/01/01:00:15.183000,228,15,183000000,base_link,0.00211421026274,-0.0034521773622,-0.70633531029,-0.707865945204,"(1.0, 0.0, 0.0, 0.0, 1.0, 0.0, 0.0, 0.0, 1.0)",0.00347271724604,0.000643947802018,-0.00560659402981,"(1.2184696791468346e-07, 0.0, 0.0, 0.0, 1.2184696791468346e-07, 0.0, 0.0, 0.0, 1.2184696791468346e-07)",-0.0322485752404,-0.108440324664,10.1648435593,"(8.999999999999999e-08, 0.0, 0.0, 0.0, 8.999999999999999e-08, 0.0, 0.0, 0.0, 8.999999999999999e-08)"
1970/01/01/01:00:15.203000,229,15,203000000,base_link,0.00201465277995,-0.00342484780628,-0.706331471881,-0.707870120788,"(1.0, 0.0, 0.0, 0.0, 1.0, 0.0, 0.0, 0.0, 1.0)",0.00431517604738,-0.00955346319824,-0.00143979908898,"(1.2184696791468346e-07, 0.0, 0.0, 0.0, 1.2184696791468346e-07, 0.0, 0.0, 0.0, 1.2184696791468346e-07)",-0.0700453594327,-0.0622058473527,10.1036205292,"(8.999999999999999e-08, 0.0, 0.0, 0.0, 8.999999999999999e-08, 0.0, 0.0, 0.0, 8.999999999999999e-08)"
1970/01/01/01:00:15.223000,230,15,223000000,base_link,0.00199641957584,-0.00341924597974,-0.706384346172,-0.707817499377,"(1.0, 0.0, 0.0, 0.0, 1.0, 0.0, 0.0, 0.0, 1.0)",0.00129441812169,0.000148793798871,0.00707720126957,"(1.2184696791468346e-07, 0.0, 0.0, 0.0, 1.2184696791468346e-07, 0.0, 0.0, 0.0, 1.2184696791468346e-07)",-0.0324751995504,0.0717333257198,10.4541606903,"(8.999999999999999e-08, 0.0, 0.0, 0.0, 8.999999999999999e-08, 0.0, 0.0, 0.0, 8.999999999999999e-08)"
1970/01/01/01:00:15.244000,231,15,244000000,base_link,0.00208211169213,-0.00348068949942,-0.706388452197,-0.707812803296,"(1.0, 0.0, 0.0, 0.0, 1.0, 0.0, 0.0, 0.0, 1.0)",0.000145316240378,0.0115097314119,-0.000341340142768,"(1.2184696791468346e-07, 0.0, 0.0, 0.0, 1.2184696791468346e-07, 0.0, 0.0, 0.0, 1.2184696791468346e-07)",0.0609973371029,0.130243822932,9.92014980316,"(8.999999999999999e-08, 0.0, 0.0, 0.0, 8.999999999999999e-08, 0.0, 0.0, 0.0, 8.999999999999999e-08)"
1970/01/01/01:00:15.263000,232,15,263000000,base_link,0.00218317843545,-0.00352815154297,-0.706368767973,-0.707831981759,"(1.0, 0.0, 0.0, 0.0, 1.0, 0.0, 0.0, 0.0, 1.0)",-0.0077147949487,0.00395815214142,-0.0086933048442,"(1.2184696791468346e-07, 0.0, 0.0, 0.0, 1.2184696791468346e-07, 0.0, 0.0, 0.0, 1.2184696791468346e-07)",0.159580647945,-0.120300121605,10.0636377335,"(8.999999999999999e-08, 0.0, 0.0, 0.0, 8.999999999999999e-08, 0.0, 0.0, 0.0, 8.999999999999999e-08)"
1970/01/01/01:00:15.284000,233,15,283000000,base_link,0.00219701597845,-0.00351949015981,-0.706361053288,-0.707839612149,"(1.0, 0.0, 0.0, 0.0, 1.0, 0.0, 0.0, 0.0, 1.0)",0.000763190211728,-0.00285729253665,-0.00273366831243,"(1.2184696791468346e-07, 0.0, 0.0, 0.0, 1.2184696791468346e-07, 0.0, 0.0, 0.0, 1.2184696791468346e-07)",0.0462798252702,0.0392182655633,10.0082197189,"(8.999999999999999e-08, 0.0, 0.0, 0.0, 8.999999999999999e-08, 0.0, 0.0, 0.0, 8.999999999999999e-08)"
1970/01/01/01:00:15.303000,234,15,303000000,base_link,0.00218631524758,-0.0035459149579,-0.706333860833,-0.707866636017,"(1.0, 0.0, 0.0, 0.0, 1.0, 0.0, 0.0, 0.0, 1.0)",-0.000676797819324,-0.00145853520371,-0.003716284642,"(1.2184696791468346e-07, 0.0, 0.0, 0.0, 1.2184696791468346e-07, 0.0, 0.0, 0.0, 1.2184696791468346e-07)",0.204621419311,0.137668445706,10.0158920288,"(8.999999999999999e-08, 0.0, 0.0, 0.0, 8.999999999999999e-08, 0.0, 0.0, 0.0, 8.999999999999999e-08)"
1970/01/01/01:00:15.323000,235,15,323000000,base_link,0.00215377623417,-0.00356856724261,-0.706352287402,-0.707848293741,"(1.0, 0.0, 0.0, 0.0, 1.0, 0.0, 0.0, 0.0, 1.0)",0.00591057911515,-0.0022400317248,0.00269311107695,"(1.2184696791468346e-07, 0.0, 0.0, 0.0, 1.2184696791468346e-07, 0.0, 0.0, 0.0, 1.2184696791468346e-07)",0.0113919600844,0.158632531762,9.68642234802,"(8.999999999999999e-08, 0.0, 0.0, 0.0, 8.999999999999999e-08, 0.0, 0.0, 0.0, 8.999999999999999e-08)"
1970/01/01/01:00:15.349000,236,15,349000000,base_link,0.00220950638634,-0.00363893387574,-0.706359502663,-0.707840572719,"(1.0, 0.0, 0.0, 0.0, 1.0, 0.0, 0.0, 0.0, 1.0)",-9.06342174858e-05,0.00583781395108,-0.0013894776348,"(1.2184696791468346e-07, 0.0, 0.0, 0.0, 1.2184696791468346e-07, 0.0, 0.0, 0.0, 1.2184696791468346e-07)",0.0501687414944,0.115146294236,9.72476959229,"(8.999999999999999e-08, 0.0, 0.0, 0.0, 8.999999999999999e-08, 0.0, 0.0, 0.0, 8.999999999999999e-08)"
1970/01/01/01:00:15.361000,237,15,361000000,base_link,0.00216569753612,-0.0036832642932,-0.706293690277,-0.70790604793,"(1.0, 0.0, 0.0, 0.0, 1.0, 0.0, 0.0, 0.0, 1.0)",-0.00162004074082,-0.00185131176841,-0.0126472907141,"(1.2184696791468346e-07, 0.0, 0.0, 0.0, 1.2184696791468346e-07, 0.0, 0.0, 0.0, 1.2184696791468346e-07)",-0.0511913783848,0.0484426729381,9.39606571198,"(8.999999999999999e-08, 0.0, 0.0, 0.0, 8.999999999999999e-08, 0.0, 0.0, 0.0, 8.999999999999999e-08)"
1970/01/01/01:00:15.384000,238,15,384000000,base_link,0.00212192432963,-0.00373644875926,-0.706291513787,-0.707908140126,"(1.0, 0.0, 0.0, 0.0, 1.0, 0.0, 0.0, 0.0, 1.0)",0.00735732354224,-0.00244114384986,0.0018431560602,"(1.2184696791468346e-07, 0.0, 0.0, 0.0, 1.2184696791468346e-07, 0.0, 0.0, 0.0, 1.2184696791468346e-07)",0.010739277117,-0.0321414470673,9.27732086182,"(8.999999999999999e-08, 0.0, 0.0, 0.0, 8.999999999999999e-08, 0.0, 0.0, 0.0, 8.999999999999999e-08)"
1970/01/01/01:00:15.402000,239,15,402000000,base_link,0.00211551381044,-0.00379914046774,-0.706311319102,-0.70788808193,"(1.0, 0.0, 0.0, 0.0, 1.0, 0.0, 0.0, 0.0, 1.0)",0.00466429302469,-0.00133954943158,0.00373764475808,"(1.2184696791468346e-07, 0.0, 0.0, 0.0, 1.2184696791468346e-07, 0.0, 0.0, 0.0, 1.2184696791468346e-07)",-0.0637830421329,0.0868905559182,9.30595970154,"(8.999999999999999e-08, 0.0, 0.0, 0.0, 8.999999999999999e-08, 0.0, 0.0, 0.0, 8.999999999999999e-08)"
1970/01/01/01:00:15.423000,240,15,422000000,base_link,0.00212021400723,-0.00374243698679,-0.706270486543,-0.707928998783,"(1.0, 0.0, 0.0, 0.0, 1.0, 0.0, 0.0, 0.0, 1.0)",-0.00748138781637,-0.00739465514198,-0.0072279535234,"(1.2184696791468346e-07, 0.0, 0.0, 0.0, 1.2184696791468346e-07, 0.0, 0.0, 0.0, 1.2184696791468346e-07)",0.0255382023752,0.228286758065,9.36524868011,"(8.999999999999999e-08, 0.0, 0.0, 0.0, 8.999999999999999e-08, 0.0, 0.0, 0.0, 8.999999999999999e-08)"
1970/01/01/01:00:15.445000,241,15,445000000,base_link,0.00213836653963,-0.00377031473985,-0.706210714163,-0.707988433988,"(1.0, 0.0, 0.0, 0.0, 1.0, 0.0, 0.0, 0.0, 1.0)",0.00204731011763,0.00575038231909,-0.00245994050056,"(1.2184696791468346e-07, 0.0, 0.0, 0.0, 1.2184696791468346e-07, 0.0, 0.0, 0.0, 1.2184696791468346e-07)",0.174174144864,0.00683495728299,9.3746881485,"(8.999999999999999e-08, 0.0, 0.0, 0.0, 8.999999999999999e-08, 0.0, 0.0, 0.0, 8.999999999999999e-08)"
1970/01/01/01:00:15.464000,242,15,463000000,base_link,0.00214941288289,-0.00383384658649,-0.706177694494,-0.708021032188,"(1.0, 0.0, 0.0, 0.0, 1.0, 0.0, 0.0, 0.0, 1.0)",0.00227025942877,0.00295430119149,-0.00510219298303,"(1.2184696791468346e-07, 0.0, 0.0, 0.0, 1.2184696791468346e-07, 0.0, 0.0, 0.0, 1.2184696791468346e-07)",0.130757078528,0.0319157317281,9.40022182465,"(8.999999999999999e-08, 0.0, 0.0, 0.0, 8.999999999999999e-08, 0.0, 0.0, 0.0, 8.999999999999999e-08)"
1970/01/01/01:00:15.483000,243,15,483000000,base_link,0.00209164478243,-0.00387429562494,-0.706147032909,-0.70805160948,"(1.0, 0.0, 0.0, 0.0, 1.0, 0.0, 0.0, 0.0, 1.0)",0.00591491162777,-0.00386080052704,-0.00943975243717,"(1.2184696791468346e-07, 0.0, 0.0, 0.0, 1.2184696791468346e-07, 0.0, 0.0, 0.0, 1.2184696791468346e-07)",0.100139960647,-0.123573854566,9.32999515533,"(8.999999999999999e-08, 0.0, 0.0, 0.0, 8.999999999999999e-08, 0.0, 0.0, 0.0, 8.999999999999999e-08)"
1970/01/01/01:00:15.503000,244,15,503000000,base_link,0.00213950969058,-0.00381048603716,-0.706184989521,-0.708013905749,"(1.0, 0.0, 0.0, 0.0, 1.0, 0.0, 0.0, 0.0, 1.0)",-0.00292542320676,-0.00470420811325,0.00704765459523,"(1.2184696791468346e-07, 0.0, 0.0, 0.0, 1.2184696791468346e-07, 0.0, 0.0, 0.0, 1.2184696791468346e-07)",0.0132990414277,0.12885594368,9.37263584137,"(8.999999999999999e-08, 0.0, 0.0, 0.0, 8.999999999999999e-08, 0.0, 0.0, 0.0, 8.999999999999999e-08)"
1970/01/01/01:00:15.524000,245,15,523000000,base_link,0.00221506853557,-0.00387155015289,-0.706235706997,-0.707962851098,"(1.0, 0.0, 0.0, 0.0, 1.0, 0.0, 0.0, 0.0, 1.0)",-0.000225429190323,0.0123619847,0.00772659387439,"(1.2184696791468346e-07, 0.0, 0.0, 0.0, 1.2184696791468346e-07, 0.0, 0.0, 0.0, 1.2184696791468346e-07)",0.1305988729,0.0946353077889,9.48121166229,"(8.999999999999999e-08, 0.0, 0.0, 0.0, 8.999999999999999e-08, 0.0, 0.0, 0.0, 8.999999999999999e-08)"
1970/01/01/01:00:15.544000,246,15,544000000,base_link,0.002219068041,-0.00386448446422,-0.706231270218,-0.707967287877,"(1.0, 0.0, 0.0, 0.0, 1.0, 0.0, 0.0, 0.0, 1.0)",-0.00199085869826,0.00158280192409,-0.00462143588811,"(1.2184696791468346e-07, 0.0, 0.0, 0.0, 1.2184696791468346e-07, 0.0, 0.0, 0.0, 1.2184696791468346e-07)",0.026798710227,0.105544134974,9.48659610748,"(8.999999999999999e-08, 0.0, 0.0, 0.0, 8.999999999999999e-08, 0.0, 0.0, 0.0, 8.999999999999999e-08)"
1970/01/01/01:00:15.563000,247,15,563000000,base_link,0.00227391006358,-0.00385387555916,-0.706314226411,-0.707884415978,"(1.0, 0.0, 0.0, 0.0, 1.0, 0.0, 0.0, 0.0, 1.0)",-0.00118653697427,0.00756745273247,0.0153678394854,"(1.2184696791468346e-07, 0.0, 0.0, 0.0, 1.2184696791468346e-07, 0.0, 0.0, 0.0, 1.2184696791468346e-07)",0.0959922596812,-0.0459496602416,9.54541873932,"(8.999999999999999e-08, 0.0, 0.0, 0.0, 8.999999999999999e-08, 0.0, 0.0, 0.0, 8.999999999999999e-08)"
1970/01/01/01:00:15.583000,248,15,583000000,base_link,0.00231620878892,-0.00393999696414,-0.70637069652,-0.707827355813,"(1.0, 0.0, 0.0, 0.0, 1.0, 0.0, 0.0, 0.0, 1.0)",0.00563891232014,0.0101847145706,0.00229950342327,"(1.2184696791468346e-07, 0.0, 0.0, 0.0, 1.2184696791468346e-07, 0.0, 0.0, 0.0, 1.2184696791468346e-07)",0.0706442818046,-0.0599266588688,9.58517169952,"(8.999999999999999e-08, 0.0, 0.0, 0.0, 8.999999999999999e-08, 0.0, 0.0, 0.0, 8.999999999999999e-08)"
1970/01/01/01:00:15.603000,249,15,603000000,base_link,0.00236524631789,-0.00404221393776,-0.706362438701,-0.707834939282,"(1.0, 0.0, 0.0, 0.0, 1.0, 0.0, 0.0, 0.0, 1.0)",0.00144164217636,0.00952093955129,-0.00275880238041,"(1.2184696791468346e-07, 0.0, 0.0, 0.0, 1.2184696791468346e-07, 0.0, 0.0, 0.0, 1.2184696791468346e-07)",0.0599110759795,0.0871540680528,9.66391658783,"(8.999999999999999e-08, 0.0, 0.0, 0.0, 8.999999999999999e-08, 0.0, 0.0, 0.0, 8.999999999999999e-08)"
1970/01/01/01:00:15.623000,250,15,623000000,base_link,0.00245312192081,-0.00397021847711,-0.706414265825,-0.70778336504,"(1.0, 0.0, 0.0, 0.0, 1.0, 0.0, 0.0, 0.0, 1.0)",-0.0104105193168,-0.00307202059776,0.0088319843635,"(1.2184696791468346e-07, 0.0, 0.0, 0.0, 1.2184696791468346e-07, 0.0, 0.0, 0.0, 1.2184696791468346e-07)",-0.00311130657792,0.0494830608368,9.85742855072,"(8.999999999999999e-08, 0.0, 0.0, 0.0, 8.999999999999999e-08, 0.0, 0.0, 0.0, 8.999999999999999e-08)"
1970/01/01/01:00:15.645000,251,15,645000000,base_link,0.00242679018329,-0.00401564537118,-0.706381581932,-0.707815796052,"(1.0, 0.0, 0.0, 0.0, 1.0, 0.0, 0.0, 0.0, 1.0)",0.00689556915313,0.00135644851252,-0.00285452231765,"(1.2184696791468346e-07, 0.0, 0.0, 0.0, 1.2184696791468346e-07, 0.0, 0.0, 0.0, 1.2184696791468346e-07)",0.0887370482087,-0.032931022346,9.90733528137,"(8.999999999999999e-08, 0.0, 0.0, 0.0, 8.999999999999999e-08, 0.0, 0.0, 0.0, 8.999999999999999e-08)"
