time,.header.seq,.header.stamp.secs,.header.stamp.nsecs,.header.frame_id,.orientation.x,.orientation.y,.orientation.z,.orientation.w,.orientation_covariance,.angular_velocity.x,.angular_velocity.y,.angular_velocity.z,.angular_velocity_covariance,.linear_acceleration.x,.linear_acceleration.y,.linear_acceleration.z,.linear_acceleration_covariance
1970/01/01/01:00:12.174000,0,12,176000000,base_link,0.000297900488563,-7.78127579353e-05,-0.674819096401,-0.737983124694,"(1.0, 0.0, 0.0, 0.0, 1.0, 0.0, 0.0, 0.0, 1.0)",-0.00704281730577,0.00761405844241,-0.000469151011202,"(1.2184696791468346e-07, 0.0, 0.0, 0.0, 1.2184696791468346e-07, 0.0, 0.0, 0.0, 1.2184696791468346e-07)",-0.0818536505103,-0.0626441314816,9.91457080841,"(8.999999999999999e-08, 0.0, 0.0, 0.0, 8.999999999999999e-08, 0.0, 0.0, 0.0, 8.999999999999999e-08)"
1970/01/01/01:00:12.202000,1,12,202000000,base_link,0.000297900490141,-7.7812734144e-05,-0.674819142116,-0.737983175181,"(1.0, 0.0, 0.0, 0.0, 1.0, 0.0, 0.0, 0.0, 1.0)",-0.00704281730577,0.00761405844241,-0.000469151011202,"(1.2184696791468346e-07, 0.0, 0.0, 0.0, 1.2184696791468346e-07, 0.0, 0.0, 0.0, 1.2184696791468346e-07)",-0.0818536505103,-0.0626441314816,9.91457080841,"(8.999999999999999e-08, 0.0, 0.0, 0.0, 8.999999999999999e-08, 0.0, 0.0, 0.0, 8.999999999999999e-08)"
1970/01/01/01:00:12.205000,2,12,205000000,base_link,0.000371919421403,-7.85802163192e-05,-0.674848210271,-0.73795646725,"(1.0, 0.0, 0.0, 0.0, 1.0, 0.0, 0.0, 0.0, 1.0)",-0.00025003310293,-0.00090452702716,0.0111279906705,"(1.2184696791468346e-07, 0.0, 0.0, 0.0, 1.2184696791468346e-07, 0.0, 0.0, 0.0, 1.2184696791468346e-07)",-1.09743773937,0.00144837412518,9.68039417267,"(8.999999999999999e-08, 0.0, 0.0, 0.0, 8.999999999999999e-08, 0.0, 0.0, 0.0, 8.999999999999999e-08)"
1970/01/01/01:00:12.215000,3,12,214000000,base_link,0.000383370553449,-0.00016902538788,-0.675070742997,-0.737752900606,"(1.0, 0.0, 0.0, 0.0, 1.0, 0.0, 0.0, 0.0, 1.0)",0.00373748876154,0.0104565983638,0.0343561992049,"(1.2184696791468346e-07, 0.0, 0.0, 0.0, 1.2184696791468346e-07, 0.0, 0.0, 0.0, 1.2184696791468346e-07)",-2.05051016808,0.0250975564122,9.81519603729,"(8.999999999999999e-08, 0.0, 0.0, 0.0, 8.999999999999999e-08, 0.0, 0.0, 0.0, 8.999999999999999e-08)"
1970/01/01/01:00:12.235000,4,12,234000000,base_link,0.000379233463662,-0.000168845759576,-0.675746425467,-0.737134032088,"(1.0, 0.0, 0.0, 0.0, 1.0, 0.0, 0.0, 0.0, 1.0)",0.00129502650816,-0.00588841410354,0.1053192541,"(1.2184696791468346e-07, 0.0, 0.0, 0.0, 1.2184696791468346e-07, 0.0, 0.0, 0.0, 1.2184696791468346e-07)",-2.6223359108,-0.063703417778,9.89150047302,"(8.999999999999999e-08, 0.0, 0.0, 0.0, 8.999999999999999e-08, 0.0, 0.0, 0.0, 8.999999999999999e-08)"
1970/01/01/01:00:12.254000,5,12,253000000,base_link,0.00037123469975,-0.000154151820605,-0.676853288637,-0.73611795323,"(1.0, 0.0, 0.0, 0.0, 1.0, 0.0, 0.0, 0.0, 1.0)",0.000310022209305,-0.00243784161285,0.161221921444,"(1.2184696791468346e-07, 0.0, 0.0, 0.0, 1.2184696791468346e-07, 0.0, 0.0, 0.0, 1.2184696791468346e-07)",0.0520831868052,0.120945870876,10.1931447983,"(8.999999999999999e-08, 0.0, 0.0, 0.0, 8.999999999999999e-08, 0.0, 0.0, 0.0, 8.999999999999999e-08)"
1970/01/01/01:00:12.274000,6,12,274000000,base_link,0.000389046774938,-0.00013339720392,-0.677930572621,-0.735125805879,"(1.0, 0.0, 0.0, 0.0, 1.0, 0.0, 0.0, 0.0, 1.0)",-0.0058380747214,-0.00105895614251,0.151521638036,"(1.2184696791468346e-07, 0.0, 0.0, 0.0, 1.2184696791468346e-07, 0.0, 0.0, 0.0, 1.2184696791468346e-07)",0.0752369835973,0.0572605095804,10.1770944595,"(8.999999999999999e-08, 0.0, 0.0, 0.0, 8.999999999999999e-08, 0.0, 0.0, 0.0, 8.999999999999999e-08)"
1970/01/01/01:00:12.293000,7,12,294000000,base_link,0.000467126003523,-0.000148923738654,-0.679026859566,-0.734113222575,"(1.0, 0.0, 0.0, 0.0, 1.0, 0.0, 0.0, 0.0, 1.0)",-0.00547039043158,0.00691880937666,0.151022166014,"(1.2184696791468346e-07, 0.0, 0.0, 0.0, 1.2184696791468346e-07, 0.0, 0.0, 0.0, 1.2184696791468346e-07)",0.0096044363454,-0.200876906514,10.1852045059,"(8.999999999999999e-08, 0.0, 0.0, 0.0, 8.999999999999999e-08, 0.0, 0.0, 0.0, 8.999999999999999e-08)"
1970/01/01/01:00:12.314000,8,12,314000000,base_link,0.000470488151059,-0.000105457383034,-0.680028695424,-0.733185396584,"(1.0, 0.0, 0.0, 0.0, 1.0, 0.0, 0.0, 0.0, 1.0)",-0.00437352666631,-0.00288608646952,0.138123586774,"(1.2184696791468346e-07, 0.0, 0.0, 0.0, 1.2184696791468346e-07, 0.0, 0.0, 0.0, 1.2184696791468346e-07)",-0.0113986907527,-0.114440828562,10.300034523,"(8.999999999999999e-08, 0.0, 0.0, 0.0, 8.999999999999999e-08, 0.0, 0.0, 0.0, 8.999999999999999e-08)"
1970/01/01/01:00:12.334000,9,12,334000000,base_link,0.000526857647048,-9.39271536182e-05,-0.681039213532,-0.732246780999,"(1.0, 0.0, 0.0, 0.0, 1.0, 0.0, 0.0, 0.0, 1.0)",-0.00222174311057,0.00196850742213,0.135656893253,"(1.2184696791468346e-07, 0.0, 0.0, 0.0, 1.2184696791468346e-07, 0.0, 0.0, 0.0, 1.2184696791468346e-07)",0.0293929837644,0.0516831353307,10.2072401047,"(8.999999999999999e-08, 0.0, 0.0, 0.0, 8.999999999999999e-08, 0.0, 0.0, 0.0, 8.999999999999999e-08)"
1970/01/01/01:00:12.354000,10,12,353000000,base_link,0.00055659788746,-5.60301809305e-05,-0.681920016811,-0.731426669181,"(1.0, 0.0, 0.0, 0.0, 1.0, 0.0, 0.0, 0.0, 1.0)",-0.00637441501021,-0.0018279615324,0.12594743073,"(1.2184696791468346e-07, 0.0, 0.0, 0.0, 1.2184696791468346e-07, 0.0, 0.0, 0.0, 1.2184696791468346e-07)",-0.00342498882674,0.182355746627,10.1166343689,"(8.999999999999999e-08, 0.0, 0.0, 0.0, 8.999999999999999e-08, 0.0, 0.0, 0.0, 8.999999999999999e-08)"
1970/01/01/01:00:12.374000,11,12,374000000,base_link,0.000520011336025,-3.48045094166e-05,-0.682754255726,-0.730647979813,"(1.0, 0.0, 0.0, 0.0, 1.0, 0.0, 0.0, 0.0, 1.0)",0.00043535628356,0.00132611824665,0.111951671541,"(1.2184696791468346e-07, 0.0, 0.0, 0.0, 1.2184696791468346e-07, 0.0, 0.0, 0.0, 1.2184696791468346e-07)",0.0571013763547,0.0623572915792,10.0745105743,"(8.999999999999999e-08, 0.0, 0.0, 0.0, 8.999999999999999e-08, 0.0, 0.0, 0.0, 8.999999999999999e-08)"
1970/01/01/01:00:12.394000,12,12,394000000,base_link,0.000585355702943,-4.86930484539e-05,-0.683485909211,-0.729963530799,"(1.0, 0.0, 0.0, 0.0, 1.0, 0.0, 0.0, 0.0, 1.0)",-0.00419611576945,0.00582395773381,0.101251713932,"(1.2184696791468346e-07, 0.0, 0.0, 0.0, 1.2184696791468346e-07, 0.0, 0.0, 0.0, 1.2184696791468346e-07)",0.0871378257871,0.0820545479655,9.97857570648,"(8.999999999999999e-08, 0.0, 0.0, 0.0, 8.999999999999999e-08, 0.0, 0.0, 0.0, 8.999999999999999e-08)"
1970/01/01/01:00:12.414000,13,12,414000000,base_link,0.0005764154056,-3.24374329127e-07,-0.684179959805,-0.729312975753,"(1.0, 0.0, 0.0, 0.0, 1.0, 0.0, 0.0, 0.0, 1.0)",-0.00124290038366,-0.00623398041353,0.0957033783197,"(1.2184696791468346e-07, 0.0, 0.0, 0.0, 1.2184696791468346e-07, 0.0, 0.0, 0.0, 1.2184696791468346e-07)",-0.101450838149,0.0692609399557,10.3938112259,"(8.999999999999999e-08, 0.0, 0.0, 0.0, 8.999999999999999e-08, 0.0, 0.0, 0.0, 8.999999999999999e-08)"
1970/01/01/01:00:12.434000,14,12,433000000,base_link,0.000712984880153,-0.000116305566134,-0.68490685333,-0.728630252125,"(1.0, 0.0, 0.0, 0.0, 1.0, 0.0, 0.0, 0.0, 1.0)",-0.00289741996676,0.0182194057852,0.102084070444,"(1.2184696791468346e-07, 0.0, 0.0, 0.0, 1.2184696791468346e-07, 0.0, 0.0, 0.0, 1.2184696791468346e-07)",-0.00199193041772,0.105235949159,10.0638275146,"(8.999999999999999e-08, 0.0, 0.0, 0.0, 8.999999999999999e-08, 0.0, 0.0, 0.0, 8.999999999999999e-08)"
1970/01/01/01:00:12.455000,15,12,454000000,base_link,0.000739236913204,-0.000102949233957,-0.685507175918,-0.728065501477,"(1.0, 0.0, 0.0, 0.0, 1.0, 0.0, 0.0, 0.0, 1.0)",-0.00398141564801,0.00185364927165,0.0769187062979,"(1.2184696791468346e-07, 0.0, 0.0, 0.0, 1.2184696791468346e-07, 0.0, 0.0, 0.0, 1.2184696791468346e-07)",-0.0711093991995,-0.0384523198009,10.1962375641,"(8.999999999999999e-08, 0.0, 0.0, 0.0, 8.999999999999999e-08, 0.0, 0.0, 0.0, 8.999999999999999e-08)"
1970/01/01/01:00:12.476000,16,12,476000000,base_link,0.000729323698668,-6.20435566281e-05,-0.686097201504,-0.727509614838,"(1.0, 0.0, 0.0, 0.0, 1.0, 0.0, 0.0, 0.0, 1.0)",-0.000662880542222,-0.00463268347085,0.0810288339853,"(1.2184696791468346e-07, 0.0, 0.0, 0.0, 1.2184696791468346e-07, 0.0, 0.0, 0.0, 1.2184696791468346e-07)",-0.0347582697868,0.139775365591,10.2032060623,"(8.999999999999999e-08, 0.0, 0.0, 0.0, 8.999999999999999e-08, 0.0, 0.0, 0.0, 8.999999999999999e-08)"
1970/01/01/01:00:12.494000,17,12,493000000,base_link,0.000666984249761,-4.24293641047e-05,-0.686656498086,-0.726981759805,"(1.0, 0.0, 0.0, 0.0, 1.0, 0.0, 0.0, 0.0, 1.0)",0.00213099597022,-0.00776761211455,0.0725903809071,"(1.2184696791468346e-07, 0.0, 0.0, 0.0, 1.2184696791468346e-07, 0.0, 0.0, 0.0, 1.2184696791468346e-07)",0.0620325058699,-0.11174339056,10.1623020172,"(8.999999999999999e-08, 0.0, 0.0, 0.0, 8.999999999999999e-08, 0.0, 0.0, 0.0, 8.999999999999999e-08)"
1970/01/01/01:00:12.514000,18,12,514000000,base_link,0.000690930450955,9.42735274508e-06,-0.687171785456,-0.726494626529,"(1.0, 0.0, 0.0, 0.0, 1.0, 0.0, 0.0, 0.0, 1.0)",-0.00585161708295,-0.00283462787047,0.0684378296137,"(1.2184696791468346e-07, 0.0, 0.0, 0.0, 1.2184696791468346e-07, 0.0, 0.0, 0.0, 1.2184696791468346e-07)",-0.0812642872334,-0.148525640368,10.0269002914,"(8.999999999999999e-08, 0.0, 0.0, 0.0, 8.999999999999999e-08, 0.0, 0.0, 0.0, 8.999999999999999e-08)"
1970/01/01/01:00:12.534000,19,12,534000000,base_link,0.000696690636869,-1.78087515956e-05,-0.687677217049,-0.726016337507,"(1.0, 0.0, 0.0, 0.0, 1.0, 0.0, 0.0, 0.0, 1.0)",0.00285137817264,0.00242217909545,0.0653028041124,"(1.2184696791468346e-07, 0.0, 0.0, 0.0, 1.2184696791468346e-07, 0.0, 0.0, 0.0, 1.2184696791468346e-07)",-0.0659159868956,0.0641704499722,10.0899515152,"(8.999999999999999e-08, 0.0, 0.0, 0.0, 8.999999999999999e-08, 0.0, 0.0, 0.0, 8.999999999999999e-08)"
1970/01/01/01:00:12.554000,20,12,554000000,base_link,0.000713944070808,-1.23468863432e-06,-0.688127175487,-0.725589897011,"(1.0, 0.0, 0.0, 0.0, 1.0, 0.0, 0.0, 0.0, 1.0)",0.00129027967341,0.00128961447626,0.0513905733824,"(1.2184696791468346e-07, 0.0, 0.0, 0.0, 1.2184696791468346e-07, 0.0, 0.0, 0.0, 1.2184696791468346e-07)",0.0859691649675,0.134452566504,10.1289396286,"(8.999999999999999e-08, 0.0, 0.0, 0.0, 8.999999999999999e-08, 0.0, 0.0, 0.0, 8.999999999999999e-08)"
1970/01/01/01:00:12.576000,21,12,576000000,base_link,0.000738967650818,-2.66482916287e-05,-0.688483851095,-0.725251344548,"(1.0, 0.0, 0.0, 0.0, 1.0, 0.0, 0.0, 0.0, 1.0)",-0.000687286898028,0.00337925041094,0.0607227385044,"(1.2184696791468346e-07, 0.0, 0.0, 0.0, 1.2184696791468346e-07, 0.0, 0.0, 0.0, 1.2184696791468346e-07)",0.0701985433698,0.136802241206,9.97138500214,"(8.999999999999999e-08, 0.0, 0.0, 0.0, 8.999999999999999e-08, 0.0, 0.0, 0.0, 8.999999999999999e-08)"
1970/01/01/01:00:12.594000,22,12,594000000,base_link,0.000728459153206,-4.32084839962e-05,-0.688913269529,-0.724843421006,"(1.0, 0.0, 0.0, 0.0, 1.0, 0.0, 0.0, 0.0, 1.0)",0.00407981639728,0.000137310184073,0.0596858933568,"(1.2184696791468346e-07, 0.0, 0.0, 0.0, 1.2184696791468346e-07, 0.0, 0.0, 0.0, 1.2184696791468346e-07)",-0.053495042026,-0.1241928339,10.2403640747,"(8.999999999999999e-08, 0.0, 0.0, 0.0, 8.999999999999999e-08, 0.0, 0.0, 0.0, 8.999999999999999e-08)"
1970/01/01/01:00:12.614000,23,12,614000000,base_link,0.000823772789968,2.78745015027e-05,-0.68934634552,-0.724431502733,"(1.0, 0.0, 0.0, 0.0, 1.0, 0.0, 0.0, 0.0, 1.0)",-0.0152621045709,-0.0018539611483,0.0615687072277,"(1.2184696791468346e-07, 0.0, 0.0, 0.0, 1.2184696791468346e-07, 0.0, 0.0, 0.0, 1.2184696791468346e-07)",0.106441445649,-0.0785920098424,9.64336299896,"(8.999999999999999e-08, 0.0, 0.0, 0.0, 8.999999999999999e-08, 0.0, 0.0, 0.0, 8.999999999999999e-08)"
1970/01/01/01:00:12.634000,24,12,634000000,base_link,0.000815486406742,5.73111940553e-05,-0.689699084349,-0.724095791231,"(1.0, 0.0, 0.0, 0.0, 1.0, 0.0, 0.0, 0.0, 1.0)",-0.00463385228068,-0.00218127551489,0.0454922281206,"(1.2184696791468346e-07, 0.0, 0.0, 0.0, 1.2184696791468346e-07, 0.0, 0.0, 0.0, 1.2184696791468346e-07)",-0.108054853976,0.1069971174,9.76394748688,"(8.999999999999999e-08, 0.0, 0.0, 0.0, 8.999999999999999e-08, 0.0, 0.0, 0.0, 8.999999999999999e-08)"
1970/01/01/01:00:12.655000,25,12,654000000,base_link,0.00087441749681,1.83768079724e-05,-0.690081224556,-0.723731521288,"(1.0, 0.0, 0.0, 0.0, 1.0, 0.0, 0.0, 0.0, 1.0)",-0.00129869556986,0.00402868818492,0.0505678057671,"(1.2184696791468346e-07, 0.0, 0.0, 0.0, 1.2184696791468346e-07, 0.0, 0.0, 0.0, 1.2184696791468346e-07)",0.0934887379408,0.0488690920174,9.46702957153,"(8.999999999999999e-08, 0.0, 0.0, 0.0, 8.999999999999999e-08, 0.0, 0.0, 0.0, 8.999999999999999e-08)"
1970/01/01/01:00:12.676000,26,12,676000000,base_link,0.000831060778561,-9.28877028501e-06,-0.690400928158,-0.723426484789,"(1.0, 0.0, 0.0, 0.0, 1.0, 0.0, 0.0, 0.0, 1.0)",0.00619793217629,-0.00310085830279,0.0436773300171,"(1.2184696791468346e-07, 0.0, 0.0, 0.0, 1.2184696791468346e-07, 0.0, 0.0, 0.0, 1.2184696791468346e-07)",-0.109146647155,0.0602624155581,9.54699325562,"(8.999999999999999e-08, 0.0, 0.0, 0.0, 8.999999999999999e-08, 0.0, 0.0, 0.0, 8.999999999999999e-08)"
1970/01/01/01:00:12.693000,27,12,693000000,base_link,0.000813089345892,-6.57529526259e-05,-0.690695521458,-0.723145294187,"(1.0, 0.0, 0.0, 0.0, 1.0, 0.0, 0.0, 0.0, 1.0)",0.00198181835003,0.00769444881007,0.0399493388832,"(1.2184696791468346e-07, 0.0, 0.0, 0.0, 1.2184696791468346e-07, 0.0, 0.0, 0.0, 1.2184696791468346e-07)",-0.0375965833664,0.0263919569552,9.39184093475,"(8.999999999999999e-08, 0.0, 0.0, 0.0, 8.999999999999999e-08, 0.0, 0.0, 0.0, 8.999999999999999e-08)"
1970/01/01/01:00:12.714000,28,12,714000000,base_link,0.000778817598983,-0.000172784318772,-0.690889972529,-0.722959525366,"(1.0, 0.0, 0.0, 0.0, 1.0, 0.0, 0.0, 0.0, 1.0)",0.0102390572429,0.0038019050844,0.0205270722508,"(1.2184696791468346e-07, 0.0, 0.0, 0.0, 1.2184696791468346e-07, 0.0, 0.0, 0.0, 1.2184696791468346e-07)",0.0545491613448,-0.131147697568,9.44845199585,"(8.999999999999999e-08, 0.0, 0.0, 0.0, 8.999999999999999e-08, 0.0, 0.0, 0.0, 8.999999999999999e-08)"
1970/01/01/01:00:12.734000,29,12,734000000,base_link,0.000711896162025,-0.000119805133388,-0.691072121989,-0.722785552395,"(1.0, 0.0, 0.0, 0.0, 1.0, 0.0, 0.0, 0.0, 1.0)",0.00421080831438,-0.00650402531028,0.0236000753939,"(1.2184696791468346e-07, 0.0, 0.0, 0.0, 1.2184696791468346e-07, 0.0, 0.0, 0.0, 1.2184696791468346e-07)",0.117429584265,0.0830923169851,9.26064777374,"(8.999999999999999e-08, 0.0, 0.0, 0.0, 8.999999999999999e-08, 0.0, 0.0, 0.0, 8.999999999999999e-08)"
1970/01/01/01:00:12.754000,30,12,754000000,base_link,0.000704006407808,-0.000218825346754,-0.691284589521,-0.72258235717,"(1.0, 0.0, 0.0, 0.0, 1.0, 0.0, 0.0, 0.0, 1.0)",0.0108997225761,0.011123964563,0.0278974641114,"(1.2184696791468346e-07, 0.0, 0.0, 0.0, 1.2184696791468346e-07, 0.0, 0.0, 0.0, 1.2184696791468346e-07)",0.155180364847,0.0844608172774,9.31401348114,"(8.999999999999999e-08, 0.0, 0.0, 0.0, 8.999999999999999e-08, 0.0, 0.0, 0.0, 8.999999999999999e-08)"
1970/01/01/01:00:12.776000,31,12,776000000,base_link,0.000693058043625,-0.000178078049379,-0.691557876272,-0.722320702949,"(1.0, 0.0, 0.0, 0.0, 1.0, 0.0, 0.0, 0.0, 1.0)",-0.00347244320437,-0.00105444190558,0.0320093780756,"(1.2184696791468346e-07, 0.0, 0.0, 0.0, 1.2184696791468346e-07, 0.0, 0.0, 0.0, 1.2184696791468346e-07)",0.155056670308,0.0801832303405,9.26326084137,"(8.999999999999999e-08, 0.0, 0.0, 0.0, 8.999999999999999e-08, 0.0, 0.0, 0.0, 8.999999999999999e-08)"
1970/01/01/01:00:12.794000,32,12,794000000,base_link,0.000687803516995,-0.000195111138442,-0.691771683283,-0.722115915364,"(1.0, 0.0, 0.0, 0.0, 1.0, 0.0, 0.0, 0.0, 1.0)",0.00606158841401,0.0055307620205,0.0276986807585,"(1.2184696791468346e-07, 0.0, 0.0, 0.0, 1.2184696791468346e-07, 0.0, 0.0, 0.0, 1.2184696791468346e-07)",0.0924113169312,-0.143047213554,9.28629207611,"(8.999999999999999e-08, 0.0, 0.0, 0.0, 8.999999999999999e-08, 0.0, 0.0, 0.0, 8.999999999999999e-08)"
1970/01/01/01:00:12.814000,33,12,814000000,base_link,0.000692815225917,-0.000149511520496,-0.691946675681,-0.721948256517,"(1.0, 0.0, 0.0, 0.0, 1.0, 0.0, 0.0, 0.0, 1.0)",-0.00727842375636,-0.00346658774652,0.0194931458682,"(1.2184696791468346e-07, 0.0, 0.0, 0.0, 1.2184696791468346e-07, 0.0, 0.0, 0.0, 1.2184696791468346e-07)",-0.13030000031,0.0578029677272,9.3601102829,"(8.999999999999999e-08, 0.0, 0.0, 0.0, 8.999999999999999e-08, 0.0, 0.0, 0.0, 8.999999999999999e-08)"
1970/01/01/01:00:12.833000,34,12,833000000,base_link,0.000671509150234,-0.000138016811325,-0.692116121817,-0.721785891052,"(1.0, 0.0, 0.0, 0.0, 1.0, 0.0, 0.0, 0.0, 1.0)",0.000407933956012,-0.00544909853488,0.0211969446391,"(1.2184696791468346e-07, 0.0, 0.0, 0.0, 1.2184696791468346e-07, 0.0, 0.0, 0.0, 1.2184696791468346e-07)",-0.170939281583,0.0281307566911,9.55948638916,"(8.999999999999999e-08, 0.0, 0.0, 0.0, 8.999999999999999e-08, 0.0, 0.0, 0.0, 8.999999999999999e-08)"
1970/01/01/01:00:12.853000,35,12,853000000,base_link,0.000623571781603,-0.000166748717198,-0.692289943323,-0.721619150217,"(1.0, 0.0, 0.0, 0.0, 1.0, 0.0, 0.0, 0.0, 1.0)",0.00530979363248,0.00285595259629,0.0151568772271,"(1.2184696791468346e-07, 0.0, 0.0, 0.0, 1.2184696791468346e-07, 0.0, 0.0, 0.0, 1.2184696791468346e-07)",0.180377945304,-0.160656601191,9.30461025238,"(8.999999999999999e-08, 0.0, 0.0, 0.0, 8.999999999999999e-08, 0.0, 0.0, 0.0, 8.999999999999999e-08)"
1970/01/01/01:00:12.875000,36,12,875000000,base_link,0.000613455570723,-0.000280473076974,-0.692545948549,-0.721373513115,"(1.0, 0.0, 0.0, 0.0, 1.0, 0.0, 0.0, 0.0, 1.0)",0.00797960162163,0.00541768223047,0.0372644588351,"(1.2184696791468346e-07, 0.0, 0.0, 0.0, 1.2184696791468346e-07, 0.0, 0.0, 0.0, 1.2184696791468346e-07)",-0.186789482832,-0.162012010813,9.29847621918,"(8.999999999999999e-08, 0.0, 0.0, 0.0, 8.999999999999999e-08, 0.0, 0.0, 0.0, 8.999999999999999e-08)"
1970/01/01/01:00:12.894000,37,12,894000000,base_link,0.000551292169285,-0.000319915540435,-0.692697951158,-0.721227579652,"(1.0, 0.0, 0.0, 0.0, 1.0, 0.0, 0.0, 0.0, 1.0)",0.00805254280567,-0.00416412111372,0.0139071103185,"(1.2184696791468346e-07, 0.0, 0.0, 0.0, 1.2184696791468346e-07, 0.0, 0.0, 0.0, 1.2184696791468346e-07)",0.0324243046343,0.0279328040779,9.1638841629,"(8.999999999999999e-08, 0.0, 0.0, 0.0, 8.999999999999999e-08, 0.0, 0.0, 0.0, 8.999999999999999e-08)"
1970/01/01/01:00:12.914000,38,12,913000000,base_link,0.000602401047107,-0.000285880581434,-0.69284855897,-0.721082788105,"(1.0, 0.0, 0.0, 0.0, 1.0, 0.0, 0.0, 0.0, 1.0)",-0.00319683225825,-0.00337337632664,0.022339431569,"(1.2184696791468346e-07, 0.0, 0.0, 0.0, 1.2184696791468346e-07, 0.0, 0.0, 0.0, 1.2184696791468346e-07)",-0.084498681128,0.0786625593901,9.43172931671,"(8.999999999999999e-08, 0.0, 0.0, 0.0, 8.999999999999999e-08, 0.0, 0.0, 0.0, 8.999999999999999e-08)"
1970/01/01/01:00:12.934000,39,12,934000000,base_link,0.000532462982394,-0.000318989297584,-0.693107623794,-0.720833922819,"(1.0, 0.0, 0.0, 0.0, 1.0, 0.0, 0.0, 0.0, 1.0)",0.00415203487501,-0.00502675771713,0.028893539682,"(1.2184696791468346e-07, 0.0, 0.0, 0.0, 1.2184696791468346e-07, 0.0, 0.0, 0.0, 1.2184696791468346e-07)",-0.0457678921521,-0.066233292222,9.60905075073,"(8.999999999999999e-08, 0.0, 0.0, 0.0, 8.999999999999999e-08, 0.0, 0.0, 0.0, 8.999999999999999e-08)"
1970/01/01/01:00:12.955000,40,12,954000000,base_link,0.000471981657975,-0.000365563067493,-0.693242242145,-0.720704446383,"(1.0, 0.0, 0.0, 0.0, 1.0, 0.0, 0.0, 0.0, 1.0)",0.00941448844969,0.000340381840942,0.0130510516465,"(1.2184696791468346e-07, 0.0, 0.0, 0.0, 1.2184696791468346e-07, 0.0, 0.0, 0.0, 1.2184696791468346e-07)",0.0483034700155,0.042223777622,9.35700511932,"(8.999999999999999e-08, 0.0, 0.0, 0.0, 8.999999999999999e-08, 0.0, 0.0, 0.0, 8.999999999999999e-08)"
1970/01/01/01:00:12.977000,41,12,976000000,base_link,0.000470018063468,-0.000370488383607,-0.693409056738,-0.720543953818,"(1.0, 0.0, 0.0, 0.0, 1.0, 0.0, 0.0, 0.0, 1.0)",-0.000203240095288,0.00488889170811,0.0205394029617,"(1.2184696791468346e-07, 0.0, 0.0, 0.0, 1.2184696791468346e-07, 0.0, 0.0, 0.0, 1.2184696791468346e-07)",0.0281331464648,-0.104908287525,9.22107982635,"(8.999999999999999e-08, 0.0, 0.0, 0.0, 8.999999999999999e-08, 0.0, 0.0, 0.0, 8.999999999999999e-08)"
1970/01/01/01:00:12.995000,42,12,994000000,base_link,0.000433742728174,-0.000429728482984,-0.693612464014,-0.720348132974,"(1.0, 0.0, 0.0, 0.0, 1.0, 0.0, 0.0, 0.0, 1.0)",0.00735307205468,0.00023856468033,0.0237410720438,"(1.2184696791468346e-07, 0.0, 0.0, 0.0, 1.2184696791468346e-07, 0.0, 0.0, 0.0, 1.2184696791468346e-07)",-0.0383757390082,0.0855864658952,9.24283790588,"(8.999999999999999e-08, 0.0, 0.0, 0.0, 8.999999999999999e-08, 0.0, 0.0, 0.0, 8.999999999999999e-08)"
1970/01/01/01:00:13.014000,43,13,14000000,base_link,0.000373177092211,-0.000498220936871,-0.69377478865,-0.720191793191,"(1.0, 0.0, 0.0, 0.0, 1.0, 0.0, 0.0, 0.0, 1.0)",0.00643748510629,-0.000417552422732,0.0168952699751,"(1.2184696791468346e-07, 0.0, 0.0, 0.0, 1.2184696791468346e-07, 0.0, 0.0, 0.0, 1.2184696791468346e-07)",0.00725461682305,-0.0813850387931,9.46097564697,"(8.999999999999999e-08, 0.0, 0.0, 0.0, 8.999999999999999e-08, 0.0, 0.0, 0.0, 8.999999999999999e-08)"
1970/01/01/01:00:13.035000,44,13,34000000,base_link,0.000338872587857,-0.000521949545699,-0.693926206471,-0.720045938753,"(1.0, 0.0, 0.0, 0.0, 1.0, 0.0, 0.0, 0.0, 1.0)",0.00160854496062,-0.00332105741836,0.0195822156966,"(1.2184696791468346e-07, 0.0, 0.0, 0.0, 1.2184696791468346e-07, 0.0, 0.0, 0.0, 1.2184696791468346e-07)",-0.16345629096,-0.0143185984343,9.35792732239,"(8.999999999999999e-08, 0.0, 0.0, 0.0, 8.999999999999999e-08, 0.0, 0.0, 0.0, 8.999999999999999e-08)"
1970/01/01/01:00:13.054000,45,13,54000000,base_link,0.000337433246227,-0.000472829873591,-0.694100794523,-0.719877588435,"(1.0, 0.0, 0.0, 0.0, 1.0, 0.0, 0.0, 0.0, 1.0)",-0.00563393021002,-0.00297840777785,0.020241111517,"(1.2184696791468346e-07, 0.0, 0.0, 0.0, 1.2184696791468346e-07, 0.0, 0.0, 0.0, 1.2184696791468346e-07)",-0.179250568151,-0.0263621173799,9.41131877899,"(8.999999999999999e-08, 0.0, 0.0, 0.0, 8.999999999999999e-08, 0.0, 0.0, 0.0, 8.999999999999999e-08)"
1970/01/01/01:00:13.073000,46,13,74000000,base_link,0.000348787767736,-0.000484373520851,-0.694218130032,-0.719764467611,"(1.0, 0.0, 0.0, 0.0, 1.0, 0.0, 0.0, 0.0, 1.0)",0.0018254587194,0.0029947666917,0.0110601549968,"(1.2184696791468346e-07, 0.0, 0.0, 0.0, 1.2184696791468346e-07, 0.0, 0.0, 0.0, 1.2184696791468346e-07)",0.0482732541859,-0.254150301218,9.3670501709,"(8.999999999999999e-08, 0.0, 0.0, 0.0, 8.999999999999999e-08, 0.0, 0.0, 0.0, 8.999999999999999e-08)"
1970/01/01/01:00:13.094000,47,13,94000000,base_link,0.000247066446608,-0.000395638543074,-0.694309264689,-0.719676620408,"(1.0, 0.0, 0.0, 0.0, 1.0, 0.0, 0.0, 0.0, 1.0)",0.00420906720683,-0.0135788135231,0.00818332657218,"(1.2184696791468346e-07, 0.0, 0.0, 0.0, 1.2184696791468346e-07, 0.0, 0.0, 0.0, 1.2184696791468346e-07)",-0.056262884289,-0.0654909685254,9.31037044525,"(8.999999999999999e-08, 0.0, 0.0, 0.0, 8.999999999999999e-08, 0.0, 0.0, 0.0, 8.999999999999999e-08)"
1970/01/01/01:00:13.114000,48,13,114000000,base_link,0.000279117108108,-0.000446214267378,-0.694455051956,-0.719536059351,"(1.0, 0.0, 0.0, 0.0, 1.0, 0.0, 0.0, 0.0, 1.0)",0.00806460250169,0.0068939756602,0.0158129166812,"(1.2184696791468346e-07, 0.0, 0.0, 0.0, 1.2184696791468346e-07, 0.0, 0.0, 0.0, 1.2184696791468346e-07)",-0.034927636385,0.100960172713,9.37263774872,"(8.999999999999999e-08, 0.0, 0.0, 0.0, 8.999999999999999e-08, 0.0, 0.0, 0.0, 8.999999999999999e-08)"
1970/01/01/01:00:13.133000,49,13,133000000,base_link,0.000266658202314,-0.000557241398631,-0.694475825084,-0.719515876279,"(1.0, 0.0, 0.0, 0.0, 1.0, 0.0, 0.0, 0.0, 1.0)",0.00681459531188,0.00871921144426,-0.00191051058937,"(1.2184696791468346e-07, 0.0, 0.0, 0.0, 1.2184696791468346e-07, 0.0, 0.0, 0.0, 1.2184696791468346e-07)",0.00407284032553,0.0539935193956,9.3393907547,"(8.999999999999999e-08, 0.0, 0.0, 0.0, 8.999999999999999e-08, 0.0, 0.0, 0.0, 8.999999999999999e-08)"
1970/01/01/01:00:13.154000,50,13,154000000,base_link,0.000208138620246,-0.000548985802361,-0.694575038765,-0.719420118639,"(1.0, 0.0, 0.0, 0.0, 1.0, 0.0, 0.0, 0.0, 1.0)",0.0074585606344,-0.00671067042276,0.0104843350127,"(1.2184696791468346e-07, 0.0, 0.0, 0.0, 1.2184696791468346e-07, 0.0, 0.0, 0.0, 1.2184696791468346e-07)",0.0640625357628,-0.0261834841222,9.34691619873,"(8.999999999999999e-08, 0.0, 0.0, 0.0, 8.999999999999999e-08, 0.0, 0.0, 0.0, 8.999999999999999e-08)"
1970/01/01/01:00:13.177000,51,13,176000000,base_link,0.000186806820168,-0.000514203354185,-0.69464511712,-0.719352400507,"(1.0, 0.0, 0.0, 0.0, 1.0, 0.0, 0.0, 0.0, 1.0)",-0.00238895253278,-0.00326695130207,0.00752706406638,"(1.2184696791468346e-07, 0.0, 0.0, 0.0, 1.2184696791468346e-07, 0.0, 0.0, 0.0, 1.2184696791468346e-07)",-0.0802031680942,0.0175767987967,9.39083385468,"(8.999999999999999e-08, 0.0, 0.0, 0.0, 8.999999999999999e-08, 0.0, 0.0, 0.0, 8.999999999999999e-08)"
1970/01/01/01:00:13.194000,52,13,194000000,base_link,0.000145616908856,-0.000534858612968,-0.694731914603,-0.719268721891,"(1.0, 0.0, 0.0, 0.0, 1.0, 0.0, 0.0, 0.0, 1.0)",0.00542563572526,0.000494068663102,0.0110698025674,"(1.2184696791468346e-07, 0.0, 0.0, 0.0, 1.2184696791468346e-07, 0.0, 0.0, 0.0, 1.2184696791468346e-07)",0.0556005872786,-0.0647734925151,9.6277589798,"(8.999999999999999e-08, 0.0, 0.0, 0.0, 8.999999999999999e-08, 0.0, 0.0, 0.0, 8.999999999999999e-08)"
1970/01/01/01:00:13.216000,53,13,216000000,base_link,0.000103653609047,-0.000550905634528,-0.694789383148,-0.719213107807,"(1.0, 0.0, 0.0, 0.0, 1.0, 0.0, 0.0, 0.0, 1.0)",0.00704917032272,0.00217697117478,0.00739499926567,"(1.2184696791468346e-07, 0.0, 0.0, 0.0, 1.2184696791468346e-07, 0.0, 0.0, 0.0, 1.2184696791468346e-07)",0.0431396812201,-0.0404058396816,9.53108692169,"(8.999999999999999e-08, 0.0, 0.0, 0.0, 8.999999999999999e-08, 0.0, 0.0, 0.0, 8.999999999999999e-08)"
1970/01/01/01:00:13.234000,54,13,234000000,base_link,0.000116790831119,-0.000495196061875,-0.694884469073,-0.719121309337,"(1.0, 0.0, 0.0, 0.0, 1.0, 0.0, 0.0, 0.0, 1.0)",0.000361486221664,-0.00189772015437,0.00602061627433,"(1.2184696791468346e-07, 0.0, 0.0, 0.0, 1.2184696791468346e-07, 0.0, 0.0, 0.0, 1.2184696791468346e-07)",0.027418512851,-0.064493432641,9.76033687592,"(8.999999999999999e-08, 0.0, 0.0, 0.0, 8.999999999999999e-08, 0.0, 0.0, 0.0, 8.999999999999999e-08)"
1970/01/01/01:00:13.254000,55,13,254000000,base_link,6.25680667493e-05,-0.000512652739113,-0.694975743342,-0.719033069641,"(1.0, 0.0, 0.0, 0.0, 1.0, 0.0, 0.0, 0.0, 1.0)",0.00541039882228,-0.00547890458256,0.0164042487741,"(1.2184696791468346e-07, 0.0, 0.0, 0.0, 1.2184696791468346e-07, 0.0, 0.0, 0.0, 1.2184696791468346e-07)",-0.0921200662851,0.0170668121427,9.86771011353,"(8.999999999999999e-08, 0.0, 0.0, 0.0, 8.999999999999999e-08, 0.0, 0.0, 0.0, 8.999999999999999e-08)"
1970/01/01/01:00:13.278000,56,13,278000000,base_link,-1.83582658285e-05,-0.000526490385007,-0.695032973494,-0.718977693951,"(1.0, 0.0, 0.0, 0.0, 1.0, 0.0, 0.0, 0.0, 1.0)",0.00366010260768,0.00190605956595,0.00756854284555,"(1.2184696791468346e-07, 0.0, 0.0, 0.0, 1.2184696791468346e-07, 0.0, 0.0, 0.0, 1.2184696791468346e-07)",0.0530423112214,0.1118671,9.86732959747,"(8.999999999999999e-08, 0.0, 0.0, 0.0, 8.999999999999999e-08, 0.0, 0.0, 0.0, 8.999999999999999e-08)"
1970/01/01/01:00:13.294000,57,13,294000000,base_link,3.72422353902e-05,-0.000629292928175,-0.695052819391,-0.718958522403,"(1.0, 0.0, 0.0, 0.0, 1.0, 0.0, 0.0, 0.0, 1.0)",0.0057014701888,0.00991270318627,0.00373788969591,"(1.2184696791468346e-07, 0.0, 0.0, 0.0, 1.2184696791468346e-07, 0.0, 0.0, 0.0, 1.2184696791468346e-07)",0.0482904538512,-0.0206839609891,10.0401334763,"(8.999999999999999e-08, 0.0, 0.0, 0.0, 8.999999999999999e-08, 0.0, 0.0, 0.0, 8.999999999999999e-08)"
1970/01/01/01:00:13.318000,58,13,318000000,base_link,6.30218656539e-05,-0.000567029273625,-0.695098255011,-0.718914688363,"(1.0, 0.0, 0.0, 0.0, 1.0, 0.0, 0.0, 0.0, 1.0)",-0.00648883450776,-0.00551242101938,0.00778106506914,"(1.2184696791468346e-07, 0.0, 0.0, 0.0, 1.2184696791468346e-07, 0.0, 0.0, 0.0, 1.2184696791468346e-07)",0.070519298315,-0.0162147823721,10.1439657211,"(8.999999999999999e-08, 0.0, 0.0, 0.0, 8.999999999999999e-08, 0.0, 0.0, 0.0, 8.999999999999999e-08)"
1970/01/01/01:00:13.335000,59,13,335000000,base_link,6.96398057893e-05,-0.0004856517969,-0.695178571099,-0.718837069674,"(1.0, 0.0, 0.0, 0.0, 1.0, 0.0, 0.0, 0.0, 1.0)",-0.00891569815576,-0.00379769434221,0.0144078079611,"(1.2184696791468346e-07, 0.0, 0.0, 0.0, 1.2184696791468346e-07, 0.0, 0.0, 0.0, 1.2184696791468346e-07)",-0.0710856467485,-0.0396575331688,10.0644226074,"(8.999999999999999e-08, 0.0, 0.0, 0.0, 8.999999999999999e-08, 0.0, 0.0, 0.0, 8.999999999999999e-08)"
1970/01/01/01:00:13.357000,60,13,357000000,base_link,3.62500763504e-05,-0.000457673327683,-0.695208424239,-0.718808143765,"(1.0, 0.0, 0.0, 0.0, 1.0, 0.0, 0.0, 0.0, 1.0)",0.00116548116785,-0.00574259506539,0.00938807241619,"(1.2184696791468346e-07, 0.0, 0.0, 0.0, 1.2184696791468346e-07, 0.0, 0.0, 0.0, 1.2184696791468346e-07)",0.0250899512321,0.109388977289,10.192065239,"(8.999999999999999e-08, 0.0, 0.0, 0.0, 8.999999999999999e-08, 0.0, 0.0, 0.0, 8.999999999999999e-08)"
1970/01/01/01:00:13.380000,61,13,380000000,base_link,7.07811663192e-05,-0.000421187430661,-0.695213707083,-0.718803113802,"(1.0, 0.0, 0.0, 0.0, 1.0, 0.0, 0.0, 0.0, 1.0)",-0.00309579446912,0.0035157315433,0.00562659604475,"(1.2184696791468346e-07, 0.0, 0.0, 0.0, 1.2184696791468346e-07, 0.0, 0.0, 0.0, 1.2184696791468346e-07)",0.0106841558591,-0.0690688118339,10.2023220062,"(8.999999999999999e-08, 0.0, 0.0, 0.0, 8.999999999999999e-08, 0.0, 0.0, 0.0, 8.999999999999999e-08)"
1970/01/01/01:00:13.396000,62,13,395000000,base_link,7.54108268181e-05,-0.000391789252672,-0.695244953702,-0.718772794413,"(1.0, 0.0, 0.0, 0.0, 1.0, 0.0, 0.0, 0.0, 1.0)",-0.00199002213776,-0.00105221499689,0.00978743098676,"(1.2184696791468346e-07, 0.0, 0.0, 0.0, 1.2184696791468346e-07, 0.0, 0.0, 0.0, 1.2184696791468346e-07)",0.0489207319915,0.065245077014,10.1956787109,"(8.999999999999999e-08, 0.0, 0.0, 0.0, 8.999999999999999e-08, 0.0, 0.0, 0.0, 8.999999999999999e-08)"
1970/01/01/01:00:13.413000,63,13,413000000,base_link,3.07083008386e-05,-0.000398184985485,-0.695217632008,-0.718799188876,"(1.0, 0.0, 0.0, 0.0, 1.0, 0.0, 0.0, 0.0, 1.0)",0.00368311512284,-0.00162857677788,-0.00321507221088,"(1.2184696791468346e-07, 0.0, 0.0, 0.0, 1.2184696791468346e-07, 0.0, 0.0, 0.0, 1.2184696791468346e-07)",-0.00781117519364,0.00896088127047,10.2549171448,"(8.999999999999999e-08, 0.0, 0.0, 0.0, 8.999999999999999e-08, 0.0, 0.0, 0.0, 8.999999999999999e-08)"
1970/01/01/01:00:13.435000,64,13,435000000,base_link,7.08373072385e-05,-0.000429026168257,-0.695240926044,-0.718776653483,"(1.0, 0.0, 0.0, 0.0, 1.0, 0.0, 0.0, 0.0, 1.0)",0.00226179719903,0.00223303888924,0.00835543777794,"(1.2184696791468346e-07, 0.0, 0.0, 0.0, 1.2184696791468346e-07, 0.0, 0.0, 0.0, 1.2184696791468346e-07)",0.17071339488,-0.0878292396665,10.1560382843,"(8.999999999999999e-08, 0.0, 0.0, 0.0, 8.999999999999999e-08, 0.0, 0.0, 0.0, 8.999999999999999e-08)"
1970/01/01/01:00:13.454000,65,13,454000000,base_link,0.00011038006497,-0.000456878937791,-0.695287387676,-0.718731793431,"(1.0, 0.0, 0.0, 0.0, 1.0, 0.0, 0.0, 0.0, 1.0)",-0.00408928655088,0.00401324639097,0.00991446617991,"(1.2184696791468346e-07, 0.0, 0.0, 0.0, 1.2184696791468346e-07, 0.0, 0.0, 0.0, 1.2184696791468346e-07)",0.0456868968904,0.0849029272795,10.2851324081,"(8.999999999999999e-08, 0.0, 0.0, 0.0, 8.999999999999999e-08, 0.0, 0.0, 0.0, 8.999999999999999e-08)"
1970/01/01/01:00:13.481000,66,13,482000000,base_link,3.690812695e-05,-0.000478750415093,-0.695297967852,-0.718721466136,"(1.0, 0.0, 0.0, 0.0, 1.0, 0.0, 0.0, 0.0, 1.0)",0.00467989593744,-0.000828548858408,0.0061414251104,"(1.2184696791468346e-07, 0.0, 0.0, 0.0, 1.2184696791468346e-07, 0.0, 0.0, 0.0, 1.2184696791468346e-07)",-0.127874210477,0.0125079676509,10.0054044724,"(8.999999999999999e-08, 0.0, 0.0, 0.0, 8.999999999999999e-08, 0.0, 0.0, 0.0, 8.999999999999999e-08)"
1970/01/01/01:00:13.495000,67,13,495000000,base_link,3.75941039526e-05,-0.000455586873466,-0.695321734724,-0.718698626496,"(1.0, 0.0, 0.0, 0.0, 1.0, 0.0, 0.0, 0.0, 1.0)",-0.00416549528018,-0.00218554749154,0.00402949564159,"(1.2184696791468346e-07, 0.0, 0.0, 0.0, 1.2184696791468346e-07, 0.0, 0.0, 0.0, 1.2184696791468346e-07)",0.105869665742,0.0725091993809,9.96270179749,"(8.999999999999999e-08, 0.0, 0.0, 0.0, 8.999999999999999e-08, 0.0, 0.0, 0.0, 8.999999999999999e-08)"
1970/01/01/01:00:13.522000,68,13,522000000,base_link,5.14478430285e-05,-0.000473748028692,-0.695299620799,-0.718719897483,"(1.0, 0.0, 0.0, 0.0, 1.0, 0.0, 0.0, 0.0, 1.0)",-0.000903277657926,0.00305738882162,-0.00149383966345,"(1.2184696791468346e-07, 0.0, 0.0, 0.0, 1.2184696791468346e-07, 0.0, 0.0, 0.0, 1.2184696791468346e-07)",-0.0489262416959,-0.058978613466,9.93072414398,"(8.999999999999999e-08, 0.0, 0.0, 0.0, 8.999999999999999e-08, 0.0, 0.0, 0.0, 8.999999999999999e-08)"
1970/01/01/01:00:13.536000,69,13,536000000,base_link,0.000118272967852,-0.000482918816612,-0.695325061691,-0.718695299529,"(1.0, 0.0, 0.0, 0.0, 1.0, 0.0, 0.0, 0.0, 1.0)",-0.00692313816398,0.00205395929515,0.00689756963402,"(1.2184696791468346e-07, 0.0, 0.0, 0.0, 1.2184696791468346e-07, 0.0, 0.0, 0.0, 1.2184696791468346e-07)",-0.011755399406,-0.0651737228036,9.67669296265,"(8.999999999999999e-08, 0.0, 0.0, 0.0, 8.999999999999999e-08, 0.0, 0.0, 0.0, 8.999999999999999e-08)"
1970/01/01/01:00:13.555000,70,13,555000000,base_link,0.000128259507202,-0.000423668167822,-0.695315720895,-0.718704387443,"(1.0, 0.0, 0.0, 0.0, 1.0, 0.0, 0.0, 0.0, 1.0)",-0.00429455004632,-0.00325088435784,-0.000459657108877,"(1.2184696791468346e-07, 0.0, 0.0, 0.0, 1.2184696791468346e-07, 0.0, 0.0, 0.0, 1.2184696791468346e-07)",-0.00412726821378,0.161906421185,9.80550861359,"(8.999999999999999e-08, 0.0, 0.0, 0.0, 8.999999999999999e-08, 0.0, 0.0, 0.0, 8.999999999999999e-08)"
1970/01/01/01:00:13.580000,71,13,580000000,base_link,8.34688082871e-05,-0.00043479658219,-0.695310111413,-0.718709828338,"(1.0, 0.0, 0.0, 0.0, 1.0, 0.0, 0.0, 0.0, 1.0)",0.00120156770572,-0.00114668998867,0.00178873795085,"(1.2184696791468346e-07, 0.0, 0.0, 0.0, 1.2184696791468346e-07, 0.0, 0.0, 0.0, 1.2184696791468346e-07)",-0.0219758413732,0.085950255394,9.69462680817,"(8.999999999999999e-08, 0.0, 0.0, 0.0, 8.999999999999999e-08, 0.0, 0.0, 0.0, 8.999999999999999e-08)"
1970/01/01/01:00:13.595000,72,13,594000000,base_link,1.97561088649e-05,-0.00042442150158,-0.695260947114,-0.718757306763,"(1.0, 0.0, 0.0, 0.0, 1.0, 0.0, 0.0, 0.0, 1.0)",0.0039753713645,-0.00589338038117,-0.00401507643983,"(1.2184696791468346e-07, 0.0, 0.0, 0.0, 1.2184696791468346e-07, 0.0, 0.0, 0.0, 1.2184696791468346e-07)",-0.0717371329665,-0.0155087159947,9.67287158966,"(8.999999999999999e-08, 0.0, 0.0, 0.0, 8.999999999999999e-08, 0.0, 0.0, 0.0, 8.999999999999999e-08)"
1970/01/01/01:00:13.615000,73,13,615000000,base_link,-6.50477543554e-05,-0.000458546784076,-0.695255151923,-0.718763017661,"(1.0, 0.0, 0.0, 0.0, 1.0, 0.0, 0.0, 0.0, 1.0)",0.0104057611898,-0.00099795171991,0.00085404003039,"(1.2184696791468346e-07, 0.0, 0.0, 0.0, 1.2184696791468346e-07, 0.0, 0.0, 0.0, 1.2184696791468346e-07)",-0.139875173569,-0.0720033273101,9.47282600403,"(8.999999999999999e-08, 0.0, 0.0, 0.0, 8.999999999999999e-08, 0.0, 0.0, 0.0, 8.999999999999999e-08)"
1970/01/01/01:00:13.635000,74,13,635000000,base_link,-5.31035062395e-05,-0.000430049031935,-0.695272010662,-0.718746664684,"(1.0, 0.0, 0.0, 0.0, 1.0, 0.0, 0.0, 0.0, 1.0)",-0.00101365172304,-0.00326208584011,0.00764311989769,"(1.2184696791468346e-07, 0.0, 0.0, 0.0, 1.2184696791468346e-07, 0.0, 0.0, 0.0, 1.2184696791468346e-07)",-0.0375571660697,-0.0243011973798,9.47561645508,"(8.999999999999999e-08, 0.0, 0.0, 0.0, 8.999999999999999e-08, 0.0, 0.0, 0.0, 8.999999999999999e-08)"
1970/01/01/01:00:13.656000,75,13,654000000,base_link,-1.44612875434e-05,-0.000366882862716,-0.695247425878,-0.71877040653,"(1.0, 0.0, 0.0, 0.0, 1.0, 0.0, 0.0, 0.0, 1.0)",-0.0081613175571,-0.00111010717228,-0.00421270355582,"(1.2184696791468346e-07, 0.0, 0.0, 0.0, 1.2184696791468346e-07, 0.0, 0.0, 0.0, 1.2184696791468346e-07)",0.00220377906226,-0.0129454499111,9.32145881653,"(8.999999999999999e-08, 0.0, 0.0, 0.0, 8.999999999999999e-08, 0.0, 0.0, 0.0, 8.999999999999999e-08)"
1970/01/01/01:00:13.677000,76,13,677000000,base_link,2.17975351011e-05,-0.000387919922966,-0.695249585904,-0.718768330798,"(1.0, 0.0, 0.0, 0.0, 1.0, 0.0, 0.0, 0.0, 1.0)",-0.00227684387937,0.00515621993691,-0.00207169866189,"(1.2184696791468346e-07, 0.0, 0.0, 0.0, 1.2184696791468346e-07, 0.0, 0.0, 0.0, 1.2184696791468346e-07)",-0.0673796534538,0.104066111147,9.43957901001,"(8.999999999999999e-08, 0.0, 0.0, 0.0, 8.999999999999999e-08, 0.0, 0.0, 0.0, 8.999999999999999e-08)"
1970/01/01/01:00:13.694000,77,13,694000000,base_link,6.3606395933e-05,-0.000330604890831,-0.695247843396,-0.7187701576,"(1.0, 0.0, 0.0, 0.0, 1.0, 0.0, 0.0, 0.0, 1.0)",-0.00770411267877,-0.00348141836002,0.000978465075605,"(1.2184696791468346e-07, 0.0, 0.0, 0.0, 1.2184696791468346e-07, 0.0, 0.0, 0.0, 1.2184696791468346e-07)",0.088718354702,0.0588657297194,9.44893836975,"(8.999999999999999e-08, 0.0, 0.0, 0.0, 8.999999999999999e-08, 0.0, 0.0, 0.0, 8.999999999999999e-08)"
1970/01/01/01:00:13.716000,78,13,713000000,base_link,8.03206156872e-05,-0.000368712155302,-0.695278675132,-0.718740253094,"(1.0, 0.0, 0.0, 0.0, 1.0, 0.0, 0.0, 0.0, 1.0)",0.00479538738728,0.00175960548222,0.00858592707664,"(1.2184696791468346e-07, 0.0, 0.0, 0.0, 1.2184696791468346e-07, 0.0, 0.0, 0.0, 1.2184696791468346e-07)",0.0436245575547,0.1709484905,9.35073757172,"(8.999999999999999e-08, 0.0, 0.0, 0.0, 8.999999999999999e-08, 0.0, 0.0, 0.0, 8.999999999999999e-08)"
1970/01/01/01:00:13.737000,79,13,737000000,base_link,6.0684650036e-05,-0.000400699617109,-0.695278472301,-0.718740455926,"(1.0, 0.0, 0.0, 0.0, 1.0, 0.0, 0.0, 0.0, 1.0)",0.00317310728133,-0.000295089092106,0.00183485005982,"(1.2184696791468346e-07, 0.0, 0.0, 0.0, 1.2184696791468346e-07, 0.0, 0.0, 0.0, 1.2184696791468346e-07)",-0.0403072685003,0.00273115793243,9.41828918457,"(8.999999999999999e-08, 0.0, 0.0, 0.0, 8.999999999999999e-08, 0.0, 0.0, 0.0, 8.999999999999999e-08)"
1970/01/01/01:00:13.756000,80,13,755000000,base_link,0.000113546377833,-0.000368702554958,-0.695283598411,-0.718735498403,"(1.0, 0.0, 0.0, 0.0, 1.0, 0.0, 0.0, 0.0, 1.0)",-0.00295624136925,0.00166710512713,0.00382696301676,"(1.2184696791468346e-07, 0.0, 0.0, 0.0, 1.2184696791468346e-07, 0.0, 0.0, 0.0, 1.2184696791468346e-07)",0.0344825237989,0.00209275260568,9.34625434875,"(8.999999999999999e-08, 0.0, 0.0, 0.0, 8.999999999999999e-08, 0.0, 0.0, 0.0, 8.999999999999999e-08)"
1970/01/01/01:00:13.779000,81,13,780000000,base_link,8.80158934786e-05,-0.000344363439357,-0.695302199659,-0.718717487211,"(1.0, 0.0, 0.0, 0.0, 1.0, 0.0, 0.0, 0.0, 1.0)",0.00353121990338,0.000565059599467,0.000690556014888,"(1.2184696791468346e-07, 0.0, 0.0, 0.0, 1.2184696791468346e-07, 0.0, 0.0, 0.0, 1.2184696791468346e-07)",0.0252410545945,-0.0619074851274,9.35354232788,"(8.999999999999999e-08, 0.0, 0.0, 0.0, 8.999999999999999e-08, 0.0, 0.0, 0.0, 8.999999999999999e-08)"
1970/01/01/01:00:13.797000,82,13,795000000,base_link,0.000129398501088,-0.000434514889777,-0.695271835489,-0.718746839856,"(1.0, 0.0, 0.0, 0.0, 1.0, 0.0, 0.0, 0.0, 1.0)",-0.00351888732985,0.00482723210007,-0.00262472731993,"(1.2184696791468346e-07, 0.0, 0.0, 0.0, 1.2184696791468346e-07, 0.0, 0.0, 0.0, 1.2184696791468346e-07)",-0.000360055535566,-0.0665215626359,9.26432037354,"(8.999999999999999e-08, 0.0, 0.0, 0.0, 8.999999999999999e-08, 0.0, 0.0, 0.0, 8.999999999999999e-08)"
1970/01/01/01:00:13.816000,83,13,814000000,base_link,0.00019486254818,-0.000377198108383,-0.695286999135,-0.718732097679,"(1.0, 0.0, 0.0, 0.0, 1.0, 0.0, 0.0, 0.0, 1.0)",-0.00252593541518,-0.00513629568741,0.00809306465089,"(1.2184696791468346e-07, 0.0, 0.0, 0.0, 1.2184696791468346e-07, 0.0, 0.0, 0.0, 1.2184696791468346e-07)",0.00138222542591,-0.0050964592956,9.47271633148,"(8.999999999999999e-08, 0.0, 0.0, 0.0, 8.999999999999999e-08, 0.0, 0.0, 0.0, 8.999999999999999e-08)"
1970/01/01/01:00:13.835000,84,13,835000000,base_link,0.000141986373563,-0.000358537169325,-0.695308966863,-0.718710888595,"(1.0, 0.0, 0.0, 0.0, 1.0, 0.0, 0.0, 0.0, 1.0)",0.0022604833357,-0.00190319085959,0.000820036686491,"(1.2184696791468346e-07, 0.0, 0.0, 0.0, 1.2184696791468346e-07, 0.0, 0.0, 0.0, 1.2184696791468346e-07)",-0.0932691842318,0.0636519119143,9.42783069611,"(8.999999999999999e-08, 0.0, 0.0, 0.0, 8.999999999999999e-08, 0.0, 0.0, 0.0, 8.999999999999999e-08)"
1970/01/01/01:00:13.854000,85,13,854000000,base_link,0.000117966044952,-0.000296582248672,-0.695350324775,-0.718671047969,"(1.0, 0.0, 0.0, 0.0, 1.0, 0.0, 0.0, 0.0, 1.0)",-0.0044324323535,-0.00832474604249,0.00300852814689,"(1.2184696791468346e-07, 0.0, 0.0, 0.0, 1.2184696791468346e-07, 0.0, 0.0, 0.0, 1.2184696791468346e-07)",0.15987212956,-0.0702407062054,9.53653430939,"(8.999999999999999e-08, 0.0, 0.0, 0.0, 8.999999999999999e-08, 0.0, 0.0, 0.0, 8.999999999999999e-08)"
1970/01/01/01:00:13.877000,86,13,877000000,base_link,0.000157604909023,-0.000334631468618,-0.695381833495,-0.718640382185,"(1.0, 0.0, 0.0, 0.0, 1.0, 0.0, 0.0, 0.0, 1.0)",-0.00377453374676,0.0141863198951,0.00350767350756,"(1.2184696791468346e-07, 0.0, 0.0, 0.0, 1.2184696791468346e-07, 0.0, 0.0, 0.0, 1.2184696791468346e-07)",-0.11175377667,-0.039281770587,9.5522441864,"(8.999999999999999e-08, 0.0, 0.0, 0.0, 8.999999999999999e-08, 0.0, 0.0, 0.0, 8.999999999999999e-08)"
1970/01/01/01:00:13.895000,87,13,894000000,base_link,0.000145121189477,-0.000342502865906,-0.695417170994,-0.718606224799,"(1.0, 0.0, 0.0, 0.0, 1.0, 0.0, 0.0, 0.0, 1.0)",0.00398286897689,-0.000269776384812,0.00193269888405,"(1.2184696791468346e-07, 0.0, 0.0, 0.0, 1.2184696791468346e-07, 0.0, 0.0, 0.0, 1.2184696791468346e-07)",0.0272128153592,0.0921922028065,9.64267253876,"(8.999999999999999e-08, 0.0, 0.0, 0.0, 8.999999999999999e-08, 0.0, 0.0, 0.0, 8.999999999999999e-08)"
1970/01/01/01:00:13.915000,88,13,914000000,base_link,0.000186605295259,-0.000365908690173,-0.695466179876,-0.718558817497,"(1.0, 0.0, 0.0, 0.0, 1.0, 0.0, 0.0, 0.0, 1.0)",-0.00602953694761,0.00871533900499,-0.000528725096956,"(1.2184696791468346e-07, 0.0, 0.0, 0.0, 1.2184696791468346e-07, 0.0, 0.0, 0.0, 1.2184696791468346e-07)",0.127644911408,-0.0161106158048,9.8793592453,"(8.999999999999999e-08, 0.0, 0.0, 0.0, 8.999999999999999e-08, 0.0, 0.0, 0.0, 8.999999999999999e-08)"
1970/01/01/01:00:13.934000,89,13,934000000,base_link,0.000219931228199,-0.000370240884059,-0.695510914804,-0.718515431268,"(1.0, 0.0, 0.0, 0.0, 1.0, 0.0, 0.0, 0.0, 1.0)",-0.0021830375772,0.00203101010993,0.00554731953889,"(1.2184696791468346e-07, 0.0, 0.0, 0.0, 1.2184696791468346e-07, 0.0, 0.0, 0.0, 1.2184696791468346e-07)",-0.0445994362235,0.00177597359289,9.68429374695,"(8.999999999999999e-08, 0.0, 0.0, 0.0, 8.999999999999999e-08, 0.0, 0.0, 0.0, 8.999999999999999e-08)"
1970/01/01/01:00:13.954000,90,13,954000000,base_link,0.000220179694984,-0.000406607697713,-0.695597830826,-0.718431296938,"(1.0, 0.0, 0.0, 0.0, 1.0, 0.0, 0.0, 0.0, 1.0)",0.000629038433544,-0.000279513129499,0.00762042030692,"(1.2184696791468346e-07, 0.0, 0.0, 0.0, 1.2184696791468346e-07, 0.0, 0.0, 0.0, 1.2184696791468346e-07)",-0.0194096975029,0.0912785679102,9.73458194733,"(8.999999999999999e-08, 0.0, 0.0, 0.0, 8.999999999999999e-08, 0.0, 0.0, 0.0, 8.999999999999999e-08)"
1970/01/01/01:00:13.977000,91,13,974000000,base_link,0.000305979658221,-0.000548194633163,-0.695669156464,-0.718362078642,"(1.0, 0.0, 0.0, 0.0, 1.0, 0.0, 0.0, 0.0, 1.0)",0.00306085310876,0.0190791357309,0.00468470016494,"(1.2184696791468346e-07, 0.0, 0.0, 0.0, 1.2184696791468346e-07, 0.0, 0.0, 0.0, 1.2184696791468346e-07)",-0.0635523796082,0.0285126622766,9.83091545105,"(8.999999999999999e-08, 0.0, 0.0, 0.0, 8.999999999999999e-08, 0.0, 0.0, 0.0, 8.999999999999999e-08)"
1970/01/01/01:00:13.994000,92,13,994000000,base_link,0.000345518423526,-0.000530677596205,-0.695733328992,-0.718300013456,"(1.0, 0.0, 0.0, 0.0, 1.0, 0.0, 0.0, 0.0, 1.0)",-0.00127524347045,-0.00262272916734,0.00419562496245,"(1.2184696791468346e-07, 0.0, 0.0, 0.0, 1.2184696791468346e-07, 0.0, 0.0, 0.0, 1.2184696791468346e-07)",-0.0766120478511,-0.0682105123997,9.86013698578,"(8.999999999999999e-08, 0.0, 0.0, 0.0, 8.999999999999999e-08, 0.0, 0.0, 0.0, 8.999999999999999e-08)"
1970/01/01/01:00:14.014000,93,14,14000000,base_link,0.000342230197611,-0.000632653161817,-0.695802099478,-0.718233266019,"(1.0, 0.0, 0.0, 0.0, 1.0, 0.0, 0.0, 0.0, 1.0)",0.00833303853869,0.00276347342879,0.00781616941094,"(1.2184696791468346e-07, 0.0, 0.0, 0.0, 1.2184696791468346e-07, 0.0, 0.0, 0.0, 1.2184696791468346e-07)",0.000223004492,-0.0577328875661,9.90322113037,"(8.999999999999999e-08, 0.0, 0.0, 0.0, 8.999999999999999e-08, 0.0, 0.0, 0.0, 8.999999999999999e-08)"
1970/01/01/01:00:14.034000,94,14,33000000,base_link,0.000326033048483,-0.00064005421427,-0.695831063583,-0.718205229145,"(1.0, 0.0, 0.0, 0.0, 1.0, 0.0, 0.0, 0.0, 1.0)",0.00232617952861,-0.00163983600214,0.00439048185945,"(1.2184696791468346e-07, 0.0, 0.0, 0.0, 1.2184696791468346e-07, 0.0, 0.0, 0.0, 1.2184696791468346e-07)",-0.0611578784883,-0.0283947959542,9.67902469635,"(8.999999999999999e-08, 0.0, 0.0, 0.0, 8.999999999999999e-08, 0.0, 0.0, 0.0, 8.999999999999999e-08)"
1970/01/01/01:00:14.054000,95,14,54000000,base_link,0.000307706505978,-0.00065389672722,-0.695863892027,-0.718173327932,"(1.0, 0.0, 0.0, 0.0, 1.0, 0.0, 0.0, 0.0, 1.0)",0.00178555620369,-0.00103205582127,0.00782820396125,"(1.2184696791468346e-07, 0.0, 0.0, 0.0, 1.2184696791468346e-07, 0.0, 0.0, 0.0, 1.2184696791468346e-07)",-0.0316048115492,0.165529325604,9.87210464478,"(8.999999999999999e-08, 0.0, 0.0, 0.0, 8.999999999999999e-08, 0.0, 0.0, 0.0, 8.999999999999999e-08)"
1970/01/01/01:00:14.075000,96,14,75000000,base_link,0.000306391094192,-0.000608721777874,-0.695902182438,-0.71813638622,"(1.0, 0.0, 0.0, 0.0, 1.0, 0.0, 0.0, 0.0, 1.0)",-0.00555643532425,-0.00350478524342,0.00339658046141,"(1.2184696791468346e-07, 0.0, 0.0, 0.0, 1.2184696791468346e-07, 0.0, 0.0, 0.0, 1.2184696791468346e-07)",-0.0291142985225,0.142650946975,9.94659423828,"(8.999999999999999e-08, 0.0, 0.0, 0.0, 8.999999999999999e-08, 0.0, 0.0, 0.0, 8.999999999999999e-08)"
1970/01/01/01:00:14.094000,97,14,94000000,base_link,0.000261463634104,-0.000604202094308,-0.695893988828,-0.718144242656,"(1.0, 0.0, 0.0, 0.0, 1.0, 0.0, 0.0, 0.0, 1.0)",0.0066459714435,-0.0125154163688,-0.00505583453923,"(1.2184696791468346e-07, 0.0, 0.0, 0.0, 1.2184696791468346e-07, 0.0, 0.0, 0.0, 1.2184696791468346e-07)",0.00427697692066,0.0909111499786,9.97841072083,"(8.999999999999999e-08, 0.0, 0.0, 0.0, 8.999999999999999e-08, 0.0, 0.0, 0.0, 8.999999999999999e-08)"
1970/01/01/01:00:14.113000,98,14,113000000,base_link,0.000164185723711,-0.000652565376599,-0.695870248298,-0.718167224542,"(1.0, 0.0, 0.0, 0.0, 1.0, 0.0, 0.0, 0.0, 1.0)",0.009845148772,-0.000762460986152,-0.00607843371108,"(1.2184696791468346e-07, 0.0, 0.0, 0.0, 1.2184696791468346e-07, 0.0, 0.0, 0.0, 1.2184696791468346e-07)",0.0503000356257,0.077522829175,10.2321872711,"(8.999999999999999e-08, 0.0, 0.0, 0.0, 8.999999999999999e-08, 0.0, 0.0, 0.0, 8.999999999999999e-08)"
1970/01/01/01:00:14.135000,99,14,134000000,base_link,0.000164838938125,-0.000676816998389,-0.695880802132,-0.718157007882,"(1.0, 0.0, 0.0, 0.0, 1.0, 0.0, 0.0, 0.0, 1.0)",0.00472072325647,0.00404367828742,0.00688464473933,"(1.2184696791468346e-07, 0.0, 0.0, 0.0, 1.2184696791468346e-07, 0.0, 0.0, 0.0, 1.2184696791468346e-07)",0.118042044342,-0.209016829729,10.0312242508,"(8.999999999999999e-08, 0.0, 0.0, 0.0, 8.999999999999999e-08, 0.0, 0.0, 0.0, 8.999999999999999e-08)"
1970/01/01/01:00:14.154000,100,14,154000000,base_link,0.000168769275805,-0.000728076477109,-0.69590467042,-0.718133729651,"(1.0, 0.0, 0.0, 0.0, 1.0, 0.0, 0.0, 0.0, 1.0)",0.00589078245685,0.00439902860671,-0.00184886716306,"(1.2184696791468346e-07, 0.0, 0.0, 0.0, 1.2184696791468346e-07, 0.0, 0.0, 0.0, 1.2184696791468346e-07)",0.218413546681,0.0548052191734,10.2377567291,"(8.999999999999999e-08, 0.0, 0.0, 0.0, 8.999999999999999e-08, 0.0, 0.0, 0.0, 8.999999999999999e-08)"
1970/01/01/01:00:14.177000,101,14,174000000,base_link,0.000167229845699,-0.000805483444938,-0.695898086292,-0.718140145192,"(1.0, 0.0, 0.0, 0.0, 1.0, 0.0, 0.0, 0.0, 1.0)",0.0032636935357,0.00773629359901,-0.00481548300013,"(1.2184696791468346e-07, 0.0, 0.0, 0.0, 1.2184696791468346e-07, 0.0, 0.0, 0.0, 1.2184696791468346e-07)",-0.0191239062697,-0.0510658249259,10.2376365662,"(8.999999999999999e-08, 0.0, 0.0, 0.0, 8.999999999999999e-08, 0.0, 0.0, 0.0, 8.999999999999999e-08)"
1970/01/01/01:00:14.194000,102,14,194000000,base_link,0.000204965742516,-0.000787985032442,-0.695868804769,-0.718168499484,"(1.0, 0.0, 0.0, 0.0, 1.0, 0.0, 0.0, 0.0, 1.0)",-0.001581056742,-0.00189578614663,-0.000520097790286,"(1.2184696791468346e-07, 0.0, 0.0, 0.0, 1.2184696791468346e-07, 0.0, 0.0, 0.0, 1.2184696791468346e-07)",-0.105229824781,-0.125510081649,10.1461629868,"(8.999999999999999e-08, 0.0, 0.0, 0.0, 8.999999999999999e-08, 0.0, 0.0, 0.0, 8.999999999999999e-08)"
1970/01/01/01:00:14.214000,103,14,214000000,base_link,0.00019568894951,-0.000859004324339,-0.695828400429,-0.718207639418,"(1.0, 0.0, 0.0, 0.0, 1.0, 0.0, 0.0, 0.0, 1.0)",0.00845401268452,0.00792410224676,-0.00591955613345,"(1.2184696791468346e-07, 0.0, 0.0, 0.0, 1.2184696791468346e-07, 0.0, 0.0, 0.0, 1.2184696791468346e-07)",-0.135093346238,-0.0262202769518,10.0623464584,"(8.999999999999999e-08, 0.0, 0.0, 0.0, 8.999999999999999e-08, 0.0, 0.0, 0.0, 8.999999999999999e-08)"
1970/01/01/01:00:14.234000,104,14,234000000,base_link,0.000136075010526,-0.000884045746789,-0.695848005299,-0.71818854031,"(1.0, 0.0, 0.0, 0.0, 1.0, 0.0, 0.0, 0.0, 1.0)",0.00797367375344,-0.00127545394935,0.00295187486336,"(1.2184696791468346e-07, 0.0, 0.0, 0.0, 1.2184696791468346e-07, 0.0, 0.0, 0.0, 1.2184696791468346e-07)",-0.0289654899389,0.00456836307421,10.0746431351,"(8.999999999999999e-08, 0.0, 0.0, 0.0, 8.999999999999999e-08, 0.0, 0.0, 0.0, 8.999999999999999e-08)"
1970/01/01/01:00:14.254000,105,14,254000000,base_link,0.000115675194984,-0.000919724371142,-0.695846181131,-0.718190280185,"(1.0, 0.0, 0.0, 0.0, 1.0, 0.0, 0.0, 0.0, 1.0)",0.00247994600795,0.000889039773028,0.00048797816271,"(1.2184696791468346e-07, 0.0, 0.0, 0.0, 1.2184696791468346e-07, 0.0, 0.0, 0.0, 1.2184696791468346e-07)",0.0853473618627,-0.112225338817,10.0841941833,"(8.999999999999999e-08, 0.0, 0.0, 0.0, 8.999999999999999e-08, 0.0, 0.0, 0.0, 8.999999999999999e-08)"
1970/01/01/01:00:14.275000,106,14,273000000,base_link,5.19044201677e-05,-0.000855454337271,-0.69584236289,-0.71819418272,"(1.0, 0.0, 0.0, 0.0, 1.0, 0.0, 0.0, 0.0, 1.0)",-0.00489320931956,-0.00927890930325,0.00743015110493,"(1.2184696791468346e-07, 0.0, 0.0, 0.0, 1.2184696791468346e-07, 0.0, 0.0, 0.0, 1.2184696791468346e-07)",-0.10208337009,0.0131104718894,10.0863628387,"(8.999999999999999e-08, 0.0, 0.0, 0.0, 8.999999999999999e-08, 0.0, 0.0, 0.0, 8.999999999999999e-08)"
1970/01/01/01:00:14.297000,107,14,295000000,base_link,9.48395052956e-05,-0.000812848112807,-0.695884031635,-0.71815377838,"(1.0, 0.0, 0.0, 0.0, 1.0, 0.0, 0.0, 0.0, 1.0)",-0.00703126844019,0.00488860812038,0.00415925402194,"(1.2184696791468346e-07, 0.0, 0.0, 0.0, 1.2184696791468346e-07, 0.0, 0.0, 0.0, 1.2184696791468346e-07)",-0.0120479306206,0.092364884913,9.90812397003,"(8.999999999999999e-08, 0.0, 0.0, 0.0, 8.999999999999999e-08, 0.0, 0.0, 0.0, 8.999999999999999e-08)"
1970/01/01/01:00:14.314000,108,14,314000000,base_link,0.000157142590198,-0.000841968868632,-0.695890154782,-0.718147823821,"(1.0, 0.0, 0.0, 0.0, 1.0, 0.0, 0.0, 0.0, 1.0)",-0.00200830237009,0.00689831888303,-0.00059447134845,"(1.2184696791468346e-07, 0.0, 0.0, 0.0, 1.2184696791468346e-07, 0.0, 0.0, 0.0, 1.2184696791468346e-07)",-0.0791563764215,-0.0485048927367,10.0778446198,"(8.999999999999999e-08, 0.0, 0.0, 0.0, 8.999999999999999e-08, 0.0, 0.0, 0.0, 8.999999999999999e-08)"
1970/01/01/01:00:14.334000,109,14,334000000,base_link,0.000174768780909,-0.000871849337865,-0.695885776778,-0.718152033237,"(1.0, 0.0, 0.0, 0.0, 1.0, 0.0, 0.0, 0.0, 1.0)",0.00216306187212,0.00141119281761,0.00610702391714,"(1.2184696791468346e-07, 0.0, 0.0, 0.0, 1.2184696791468346e-07, 0.0, 0.0, 0.0, 1.2184696791468346e-07)",-0.0352009646595,-0.0736148282886,10.0910701752,"(8.999999999999999e-08, 0.0, 0.0, 0.0, 8.999999999999999e-08, 0.0, 0.0, 0.0, 8.999999999999999e-08)"
1970/01/01/01:00:14.354000,110,14,354000000,base_link,0.000175882173877,-0.000921525696167,-0.695929508084,-0.718109482042,"(1.0, 0.0, 0.0, 0.0, 1.0, 0.0, 0.0, 0.0, 1.0)",0.00197746045887,0.00501039763913,0.00606023613364,"(1.2184696791468346e-07, 0.0, 0.0, 0.0, 1.2184696791468346e-07, 0.0, 0.0, 0.0, 1.2184696791468346e-07)",0.156688958406,0.110265761614,9.96955013275,"(8.999999999999999e-08, 0.0, 0.0, 0.0, 8.999999999999999e-08, 0.0, 0.0, 0.0, 8.999999999999999e-08)"
1970/01/01/01:00:14.378000,111,14,374000000,base_link,0.000245369938203,-0.000990200158025,-0.695973349368,-0.718066989458,"(1.0, 0.0, 0.0, 0.0, 1.0, 0.0, 0.0, 0.0, 1.0)",0.00226443260908,0.0104446019977,0.00544214621186,"(1.2184696791468346e-07, 0.0, 0.0, 0.0, 1.2184696791468346e-07, 0.0, 0.0, 0.0, 1.2184696791468346e-07)",0.0464035384357,-0.12635114789,9.86072540283,"(8.999999999999999e-08, 0.0, 0.0, 0.0, 8.999999999999999e-08, 0.0, 0.0, 0.0, 8.999999999999999e-08)"
1970/01/01/01:00:14.394000,112,14,394000000,base_link,0.000226068492582,-0.000959945059286,-0.696014960161,-0.718026558776,"(1.0, 0.0, 0.0, 0.0, 1.0, 0.0, 0.0, 0.0, 1.0)",8.7899970822e-05,-0.00479073449969,0.0027266414836,"(1.2184696791468346e-07, 0.0, 0.0, 0.0, 1.2184696791468346e-07, 0.0, 0.0, 0.0, 1.2184696791468346e-07)",0.0958099812269,0.00557687785477,9.68070697784,"(8.999999999999999e-08, 0.0, 0.0, 0.0, 8.999999999999999e-08, 0.0, 0.0, 0.0, 8.999999999999999e-08)"
1970/01/01/01:00:14.415000,113,14,414000000,base_link,0.000186228237369,-0.000952319813587,-0.696021249261,-0.718020606851,"(1.0, 0.0, 0.0, 0.0, 1.0, 0.0, 0.0, 0.0, 1.0)",0.00366845540702,0.00186183350161,9.16686258279e-05,"(1.2184696791468346e-07, 0.0, 0.0, 0.0, 1.2184696791468346e-07, 0.0, 0.0, 0.0, 1.2184696791468346e-07)",0.0316225513816,0.00698528811336,9.59323215485,"(8.999999999999999e-08, 0.0, 0.0, 0.0, 8.999999999999999e-08, 0.0, 0.0, 0.0, 8.999999999999999e-08)"
1970/01/01/01:00:14.434000,114,14,433000000,base_link,0.000159090359058,-0.000973067587583,-0.696047801776,-0.717994728686,"(1.0, 0.0, 0.0, 0.0, 1.0, 0.0, 0.0, 0.0, 1.0)",0.000980261713266,-0.00309939403087,0.00599577045068,"(1.2184696791468346e-07, 0.0, 0.0, 0.0, 1.2184696791468346e-07, 0.0, 0.0, 0.0, 1.2184696791468346e-07)",0.0607230514288,0.00384808960371,9.74812412262,"(8.999999999999999e-08, 0.0, 0.0, 0.0, 8.999999999999999e-08, 0.0, 0.0, 0.0, 8.999999999999999e-08)"
1970/01/01/01:00:14.454000,115,14,454000000,base_link,0.000157084555964,-0.000989387514103,-0.696021172211,-0.718020599607,"(1.0, 0.0, 0.0, 0.0, 1.0, 0.0, 0.0, 0.0, 1.0)",0.00208142399788,0.00271159596741,-0.0031326871831,"(1.2184696791468346e-07, 0.0, 0.0, 0.0, 1.2184696791468346e-07, 0.0, 0.0, 0.0, 1.2184696791468346e-07)",0.0991099849343,0.0143732661381,9.71590423584,"(8.999999999999999e-08, 0.0, 0.0, 0.0, 8.999999999999999e-08, 0.0, 0.0, 0.0, 8.999999999999999e-08)"
1970/01/01/01:00:14.477000,116,14,476000000,base_link,0.000142949515485,-0.00104306346016,-0.696079436937,-0.717964105049,"(1.0, 0.0, 0.0, 0.0, 1.0, 0.0, 0.0, 0.0, 1.0)",0.00553266517818,0.00245802500285,0.0118846204132,"(1.2184696791468346e-07, 0.0, 0.0, 0.0, 1.2184696791468346e-07, 0.0, 0.0, 0.0, 1.2184696791468346e-07)",-0.0637932568789,-0.0404518917203,9.74043560028,"(8.999999999999999e-08, 0.0, 0.0, 0.0, 8.999999999999999e-08, 0.0, 0.0, 0.0, 8.999999999999999e-08)"
1970/01/01/01:00:14.494000,117,14,494000000,base_link,0.000137222853603,-0.00102412244418,-0.696103930841,-0.717940369788,"(1.0, 0.0, 0.0, 0.0, 1.0, 0.0, 0.0, 0.0, 1.0)",-0.00178294279613,-0.00342381699011,0.000440975010861,"(1.2184696791468346e-07, 0.0, 0.0, 0.0, 1.2184696791468346e-07, 0.0, 0.0, 0.0, 1.2184696791468346e-07)",-0.00186479755212,-0.0767954960465,9.41078567505,"(8.999999999999999e-08, 0.0, 0.0, 0.0, 8.999999999999999e-08, 0.0, 0.0, 0.0, 8.999999999999999e-08)"
1970/01/01/01:00:14.514000,118,14,514000000,base_link,8.38544478351e-05,-0.00103026481228,-0.696096318725,-0.717947813317,"(1.0, 0.0, 0.0, 0.0, 1.0, 0.0, 0.0, 0.0, 1.0)",-0.00032710886444,0.000778830726631,-0.00262306025252,"(1.2184696791468346e-07, 0.0, 0.0, 0.0, 1.2184696791468346e-07, 0.0, 0.0, 0.0, 1.2184696791468346e-07)",0.00370189454406,0.0512708798051,9.32666873932,"(8.999999999999999e-08, 0.0, 0.0, 0.0, 8.999999999999999e-08, 0.0, 0.0, 0.0, 8.999999999999999e-08)"
1970/01/01/01:00:14.534000,119,14,534000000,base_link,0.00015846494757,-0.000997339109764,-0.696156526157,-0.717889291759,"(1.0, 0.0, 0.0, 0.0, 1.0, 0.0, 0.0, 0.0, 1.0)",-0.00810035225004,0.00360937509686,0.0137582048774,"(1.2184696791468346e-07, 0.0, 0.0, 0.0, 1.2184696791468346e-07, 0.0, 0.0, 0.0, 1.2184696791468346e-07)",0.107715606689,-0.153983592987,9.498005867,"(8.999999999999999e-08, 0.0, 0.0, 0.0, 8.999999999999999e-08, 0.0, 0.0, 0.0, 8.999999999999999e-08)"
1970/01/01/01:00:14.554000,120,14,554000000,base_link,0.000119437830189,-0.00107858823205,-0.696110789582,-0.717933679635,"(1.0, 0.0, 0.0, 0.0, 1.0, 0.0, 0.0, 0.0, 1.0)",0.00740042235702,-5.93167787883e-05,-0.00863296817988,"(1.2184696791468346e-07, 0.0, 0.0, 0.0, 1.2184696791468346e-07, 0.0, 0.0, 0.0, 1.2184696791468346e-07)",-0.103290893137,0.0715866461396,9.42671966553,"(8.999999999999999e-08, 0.0, 0.0, 0.0, 8.999999999999999e-08, 0.0, 0.0, 0.0, 8.999999999999999e-08)"
1970/01/01/01:00:14.577000,121,14,574000000,base_link,0.000151127033072,-0.00107636922517,-0.696112090208,-0.717932379009,"(1.0, 0.0, 0.0, 0.0, 1.0, 0.0, 0.0, 0.0, 1.0)",-0.00061171525158,0.00216844212264,7.30001484044e-05,"(1.2184696791468346e-07, 0.0, 0.0, 0.0, 1.2184696791468346e-07, 0.0, 0.0, 0.0, 1.2184696791468346e-07)",0.118898160756,0.112605452538,9.24020767212,"(8.999999999999999e-08, 0.0, 0.0, 0.0, 8.999999999999999e-08, 0.0, 0.0, 0.0, 8.999999999999999e-08)"
1970/01/01/01:00:14.594000,122,14,594000000,base_link,0.000138594478336,-0.00107964593685,-0.696089682572,-0.717954112295,"(1.0, 0.0, 0.0, 0.0, 1.0, 0.0, 0.0, 0.0, 1.0)",0.002369644586,-0.000943104678299,-0.00251068733633,"(1.2184696791468346e-07, 0.0, 0.0, 0.0, 1.2184696791468346e-07, 0.0, 0.0, 0.0, 1.2184696791468346e-07)",-0.0747580453753,-0.0612532645464,9.35375213623,"(8.999999999999999e-08, 0.0, 0.0, 0.0, 8.999999999999999e-08, 0.0, 0.0, 0.0, 8.999999999999999e-08)"
1970/01/01/01:00:14.614000,123,14,613000000,base_link,0.000225288076181,-0.00104317080291,-0.696058759956,-0.71798410768,"(1.0, 0.0, 0.0, 0.0, 1.0, 0.0, 0.0, 0.0, 1.0)",-0.0125415651128,0.00340323173441,-0.00791661255062,"(1.2184696791468346e-07, 0.0, 0.0, 0.0, 1.2184696791468346e-07, 0.0, 0.0, 0.0, 1.2184696791468346e-07)",-0.120419971645,-0.0714300647378,9.27923774719,"(8.999999999999999e-08, 0.0, 0.0, 0.0, 8.999999999999999e-08, 0.0, 0.0, 0.0, 8.999999999999999e-08)"
1970/01/01/01:00:14.634000,124,14,634000000,base_link,0.000298502543878,-0.00114919823853,-0.696045738556,-0.717996539025,"(1.0, 0.0, 0.0, 0.0, 1.0, 0.0, 0.0, 0.0, 1.0)",0.00705940509215,0.0161727145314,-0.00129994377494,"(1.2184696791468346e-07, 0.0, 0.0, 0.0, 1.2184696791468346e-07, 0.0, 0.0, 0.0, 1.2184696791468346e-07)",0.0590460672975,-0.0959408655763,9.28858947754,"(8.999999999999999e-08, 0.0, 0.0, 0.0, 8.999999999999999e-08, 0.0, 0.0, 0.0, 8.999999999999999e-08)"
1970/01/01/01:00:14.655000,125,14,654000000,base_link,0.000258901299162,-0.00118954544954,-0.696040187026,-0.718001921968,"(1.0, 0.0, 0.0, 0.0, 1.0, 0.0, 0.0, 0.0, 1.0)",0.0074902898632,-0.00152668915689,0.000573964149226,"(1.2184696791468346e-07, 0.0, 0.0, 0.0, 1.2184696791468346e-07, 0.0, 0.0, 0.0, 1.2184696791468346e-07)",-0.0486120060086,-0.118523605168,9.48386383057,"(8.999999999999999e-08, 0.0, 0.0, 0.0, 8.999999999999999e-08, 0.0, 0.0, 0.0, 8.999999999999999e-08)"
1970/01/01/01:00:14.674000,126,14,676000000,base_link,0.00024866447174,-0.00116997935135,-0.696011451436,-0.71802981462,"(1.0, 0.0, 0.0, 0.0, 1.0, 0.0, 0.0, 0.0, 1.0)",-0.00032044557156,-0.00603506620973,-0.00286678643897,"(1.2184696791468346e-07, 0.0, 0.0, 0.0, 1.2184696791468346e-07, 0.0, 0.0, 0.0, 1.2184696791468346e-07)",0.00514588179067,-0.0448480062187,9.53535652161,"(8.999999999999999e-08, 0.0, 0.0, 0.0, 8.999999999999999e-08, 0.0, 0.0, 0.0, 8.999999999999999e-08)"
1970/01/01/01:00:14.694000,127,14,694000000,base_link,0.000278436898514,-0.00119305759088,-0.696028861377,-0.718012741854,"(1.0, 0.0, 0.0, 0.0, 1.0, 0.0, 0.0, 0.0, 1.0)",0.000829431344755,0.00387401040643,0.000870433694217,"(1.2184696791468346e-07, 0.0, 0.0, 0.0, 1.2184696791468346e-07, 0.0, 0.0, 0.0, 1.2184696791468346e-07)",0.0349292196333,0.101103968918,9.50965213776,"(8.999999999999999e-08, 0.0, 0.0, 0.0, 8.999999999999999e-08, 0.0, 0.0, 0.0, 8.999999999999999e-08)"
1970/01/01/01:00:14.714000,128,14,714000000,base_link,0.000326426600854,-0.001220705018,-0.696068302925,-0.717974564712,"(1.0, 0.0, 0.0, 0.0, 1.0, 0.0, 0.0, 0.0, 1.0)",-0.00235538301058,0.00555010419339,0.00603510439396,"(1.2184696791468346e-07, 0.0, 0.0, 0.0, 1.2184696791468346e-07, 0.0, 0.0, 0.0, 1.2184696791468346e-07)",0.0517377331853,0.157554000616,9.47559547424,"(8.999999999999999e-08, 0.0, 0.0, 0.0, 8.999999999999999e-08, 0.0, 0.0, 0.0, 8.999999999999999e-08)"
1970/01/01/01:00:14.734000,129,14,734000000,base_link,0.000392714991324,-0.00128803876556,-0.696072071775,-0.717970627274,"(1.0, 0.0, 0.0, 0.0, 1.0, 0.0, 0.0, 0.0, 1.0)",-0.0021853656508,0.0103617981076,-0.00168753298931,"(1.2184696791468346e-07, 0.0, 0.0, 0.0, 1.2184696791468346e-07, 0.0, 0.0, 0.0, 1.2184696791468346e-07)",-0.00244309566915,-0.00797664374113,9.2624464035,"(8.999999999999999e-08, 0.0, 0.0, 0.0, 8.999999999999999e-08, 0.0, 0.0, 0.0, 8.999999999999999e-08)"
1970/01/01/01:00:14.754000,130,14,754000000,base_link,0.00043401486928,-0.00121500280459,-0.696106626922,-0.717937336532,"(1.0, 0.0, 0.0, 0.0, 1.0, 0.0, 0.0, 0.0, 1.0)",-0.013252414763,-0.00281756557524,-0.00367406755686,"(1.2184696791468346e-07, 0.0, 0.0, 0.0, 1.2184696791468346e-07, 0.0, 0.0, 0.0, 1.2184696791468346e-07)",0.0305607262999,0.0503215715289,9.40694522858,"(8.999999999999999e-08, 0.0, 0.0, 0.0, 8.999999999999999e-08, 0.0, 0.0, 0.0, 8.999999999999999e-08)"
1970/01/01/01:00:14.776000,131,14,774000000,base_link,0.000398493143155,-0.00118352042584,-0.696079735257,-0.717963469554,"(1.0, 0.0, 0.0, 0.0, 1.0, 0.0, 0.0, 0.0, 1.0)",0.00114359578583,-0.00502565642819,-0.00393812078983,"(1.2184696791468346e-07, 0.0, 0.0, 0.0, 1.2184696791468346e-07, 0.0, 0.0, 0.0, 1.2184696791468346e-07)",-0.00555054470897,-0.103357590735,9.50407314301,"(8.999999999999999e-08, 0.0, 0.0, 0.0, 8.999999999999999e-08, 0.0, 0.0, 0.0, 8.999999999999999e-08)"
1970/01/01/01:00:14.793000,132,14,794000000,base_link,0.000331310819675,-0.00125019303587,-0.696144495866,-0.717900563407,"(1.0, 0.0, 0.0, 0.0, 1.0, 0.0, 0.0, 0.0, 1.0)",0.00117246282753,-0.00374297285452,0.00491982232779,"(1.2184696791468346e-07, 0.0, 0.0, 0.0, 1.2184696791468346e-07, 0.0, 0.0, 0.0, 1.2184696791468346e-07)",-0.121626988053,0.147636756301,9.47128582001,"(8.999999999999999e-08, 0.0, 0.0, 0.0, 8.999999999999999e-08, 0.0, 0.0, 0.0, 8.999999999999999e-08)"
1970/01/01/01:00:14.814000,133,14,814000000,base_link,0.000367928569656,-0.00117920518947,-0.696204556442,-0.717842357292,"(1.0, 0.0, 0.0, 0.0, 1.0, 0.0, 0.0, 0.0, 1.0)",-0.0112942550331,-0.00189115363173,0.0101672736928,"(1.2184696791468346e-07, 0.0, 0.0, 0.0, 1.2184696791468346e-07, 0.0, 0.0, 0.0, 1.2184696791468346e-07)",-0.129936501384,-0.0455308482051,9.67694664001,"(8.999999999999999e-08, 0.0, 0.0, 0.0, 8.999999999999999e-08, 0.0, 0.0, 0.0, 8.999999999999999e-08)"
1970/01/01/01:00:14.834000,134,14,834000000,base_link,0.0004462046516,-0.00123889566368,-0.6962572591,-0.717791256214,"(1.0, 0.0, 0.0, 0.0, 1.0, 0.0, 0.0, 0.0, 1.0)",-9.31912509259e-05,0.0108210239559,0.00713397236541,"(1.2184696791468346e-07, 0.0, 0.0, 0.0, 1.2184696791468346e-07, 0.0, 0.0, 0.0, 1.2184696791468346e-07)",0.0559893399477,-0.0131910201162,9.73175621033,"(8.999999999999999e-08, 0.0, 0.0, 0.0, 8.999999999999999e-08, 0.0, 0.0, 0.0, 8.999999999999999e-08)"
1970/01/01/01:00:14.854000,135,14,854000000,base_link,0.000535864416227,-0.00120540595895,-0.696264571579,-0.717784028029,"(1.0, 0.0, 0.0, 0.0, 1.0, 0.0, 0.0, 0.0, 1.0)",-0.00546006020159,-0.00343158608302,0.00491574732587,"(1.2184696791468346e-07, 0.0, 0.0, 0.0, 1.2184696791468346e-07, 0.0, 0.0, 0.0, 1.2184696791468346e-07)",-0.0433993265033,0.0894333198667,9.53298568726,"(8.999999999999999e-08, 0.0, 0.0, 0.0, 8.999999999999999e-08, 0.0, 0.0, 0.0, 8.999999999999999e-08)"
1970/01/01/01:00:14.876000,136,14,876000000,base_link,0.00054196978236,-0.00122267052641,-0.696295361169,-0.71775416567,"(1.0, 0.0, 0.0, 0.0, 1.0, 0.0, 0.0, 0.0, 1.0)",0.00282817706466,0.00703702308238,-0.00053427927196,"(1.2184696791468346e-07, 0.0, 0.0, 0.0, 1.2184696791468346e-07, 0.0, 0.0, 0.0, 1.2184696791468346e-07)",-0.0739333704114,-0.0341855809093,9.94877719879,"(8.999999999999999e-08, 0.0, 0.0, 0.0, 8.999999999999999e-08, 0.0, 0.0, 0.0, 8.999999999999999e-08)"
1970/01/01/01:00:14.894000,137,14,894000000,base_link,0.000512031937437,-0.00132294767486,-0.696282881092,-0.717766139985,"(1.0, 0.0, 0.0, 0.0, 1.0, 0.0, 0.0, 0.0, 1.0)",0.00811501313001,0.000571838754695,0.00136553030461,"(1.2184696791468346e-07, 0.0, 0.0, 0.0, 1.2184696791468346e-07, 0.0, 0.0, 0.0, 1.2184696791468346e-07)",0.00573562039062,-0.0350579433143,9.90976905823,"(8.999999999999999e-08, 0.0, 0.0, 0.0, 8.999999999999999e-08, 0.0, 0.0, 0.0, 8.999999999999999e-08)"
1970/01/01/01:00:14.914000,138,14,913000000,base_link,0.000463693247667,-0.00135457464529,-0.696304075688,-0.717745535444,"(1.0, 0.0, 0.0, 0.0, 1.0, 0.0, 0.0, 0.0, 1.0)",0.00791291240603,-0.000943383027334,0.00226585450582,"(1.2184696791468346e-07, 0.0, 0.0, 0.0, 1.2184696791468346e-07, 0.0, 0.0, 0.0, 1.2184696791468346e-07)",0.0354257710278,-0.0488872006536,9.67368125916,"(8.999999999999999e-08, 0.0, 0.0, 0.0, 8.999999999999999e-08, 0.0, 0.0, 0.0, 8.999999999999999e-08)"
1970/01/01/01:00:14.936000,139,14,935000000,base_link,0.000469982224241,-0.00137271256624,-0.696310383886,-0.717739480128,"(1.0, 0.0, 0.0, 0.0, 1.0, 0.0, 0.0, 0.0, 1.0)",-0.00200470443815,-0.00138117151801,-0.00134995847475,"(1.2184696791468346e-07, 0.0, 0.0, 0.0, 1.2184696791468346e-07, 0.0, 0.0, 0.0, 1.2184696791468346e-07)",-0.0364220179617,0.0811868235469,9.79738712311,"(8.999999999999999e-08, 0.0, 0.0, 0.0, 8.999999999999999e-08, 0.0, 0.0, 0.0, 8.999999999999999e-08)"
1970/01/01/01:00:14.957000,140,14,955000000,base_link,0.000582072261764,-0.00137178171358,-0.696334765838,-0.717715688232,"(1.0, 0.0, 0.0, 0.0, 1.0, 0.0, 0.0, 0.0, 1.0)",-0.00918337889016,0.00886460393667,0.00261604436673,"(1.2184696791468346e-07, 0.0, 0.0, 0.0, 1.2184696791468346e-07, 0.0, 0.0, 0.0, 1.2184696791468346e-07)",0.0140263987705,0.140908613801,10.0803880692,"(8.999999999999999e-08, 0.0, 0.0, 0.0, 8.999999999999999e-08, 0.0, 0.0, 0.0, 8.999999999999999e-08)"
1970/01/01/01:00:14.978000,141,14,978000000,base_link,0.000589386962569,-0.00133711848254,-0.696318541277,-0.71773140703,"(1.0, 0.0, 0.0, 0.0, 1.0, 0.0, 0.0, 0.0, 1.0)",-0.00369236106053,-0.00216174847446,-0.000942353042774,"(1.2184696791468346e-07, 0.0, 0.0, 0.0, 1.2184696791468346e-07, 0.0, 0.0, 0.0, 1.2184696791468346e-07)",-0.0805860236287,-0.0426632016897,10.1005878448,"(8.999999999999999e-08, 0.0, 0.0, 0.0, 8.999999999999999e-08, 0.0, 0.0, 0.0, 8.999999999999999e-08)"
1970/01/01/01:00:14.994000,142,14,994000000,base_link,0.000596596460888,-0.00130060786952,-0.696335456651,-0.717715166006,"(1.0, 0.0, 0.0, 0.0, 1.0, 0.0, 0.0, 0.0, 1.0)",-0.00351963960566,-0.00344396405853,0.00211139139719,"(1.2184696791468346e-07, 0.0, 0.0, 0.0, 1.2184696791468346e-07, 0.0, 0.0, 0.0, 1.2184696791468346e-07)",-0.221096903086,-0.132433950901,9.86009311676,"(8.999999999999999e-08, 0.0, 0.0, 0.0, 8.999999999999999e-08, 0.0, 0.0, 0.0, 8.999999999999999e-08)"
1970/01/01/01:00:15.014000,143,15,14000000,base_link,0.000628674266769,-0.00126790971471,-0.696375402644,-0.717676400125,"(1.0, 0.0, 0.0, 0.0, 1.0, 0.0, 0.0, 0.0, 1.0)",-0.00525837298483,-0.00334697589278,0.00150556862354,"(1.2184696791468346e-07, 0.0, 0.0, 0.0, 1.2184696791468346e-07, 0.0, 0.0, 0.0, 1.2184696791468346e-07)",-0.0658312141895,-0.0692302882671,9.84598827362,"(8.999999999999999e-08, 0.0, 0.0, 0.0, 8.999999999999999e-08, 0.0, 0.0, 0.0, 8.999999999999999e-08)"
1970/01/01/01:00:15.035000,144,15,34000000,base_link,0.000632408317027,-0.00121436138224,-0.696352379928,-0.717698748491,"(1.0, 0.0, 0.0, 0.0, 1.0, 0.0, 0.0, 0.0, 1.0)",-0.0056259650737,-0.00522440578789,-0.00230555725284,"(1.2184696791468346e-07, 0.0, 0.0, 0.0, 1.2184696791468346e-07, 0.0, 0.0, 0.0, 1.2184696791468346e-07)",0.0643172040582,0.103994086385,10.0164842606,"(8.999999999999999e-08, 0.0, 0.0, 0.0, 8.999999999999999e-08, 0.0, 0.0, 0.0, 8.999999999999999e-08)"
1970/01/01/01:00:15.054000,145,15,54000000,base_link,0.000664637238294,-0.00123291216943,-0.69638231341,-0.71766974224,"(1.0, 0.0, 0.0, 0.0, 1.0, 0.0, 0.0, 0.0, 1.0)",0.00128126924392,0.00110087764915,0.00646434305236,"(1.2184696791468346e-07, 0.0, 0.0, 0.0, 1.2184696791468346e-07, 0.0, 0.0, 0.0, 1.2184696791468346e-07)",-0.0982298031449,-0.128222614527,10.1747274399,"(8.999999999999999e-08, 0.0, 0.0, 0.0, 8.999999999999999e-08, 0.0, 0.0, 0.0, 8.999999999999999e-08)"
1970/01/01/01:00:15.077000,146,15,74000000,base_link,0.000616981747291,-0.00129205909746,-0.696450513596,-0.717603396515,"(1.0, 0.0, 0.0, 0.0, 1.0, 0.0, 0.0, 0.0, 1.0)",0.00888607557863,-0.000488619669341,0.00616765674204,"(1.2184696791468346e-07, 0.0, 0.0, 0.0, 1.2184696791468346e-07, 0.0, 0.0, 0.0, 1.2184696791468346e-07)",0.127961963415,0.000611615600066,9.83711910248,"(8.999999999999999e-08, 0.0, 0.0, 0.0, 8.999999999999999e-08, 0.0, 0.0, 0.0, 8.999999999999999e-08)"
1970/01/01/01:00:15.094000,147,15,94000000,base_link,0.000657814984725,-0.00132485838001,-0.696467056234,-0.717587359639,"(1.0, 0.0, 0.0, 0.0, 1.0, 0.0, 0.0, 0.0, 1.0)",0.000269832438789,0.0103680752218,2.3503373086e-05,"(1.2184696791468346e-07, 0.0, 0.0, 0.0, 1.2184696791468346e-07, 0.0, 0.0, 0.0, 1.2184696791468346e-07)",0.0715832039714,-0.0132311331108,9.89171123505,"(8.999999999999999e-08, 0.0, 0.0, 0.0, 8.999999999999999e-08, 0.0, 0.0, 0.0, 8.999999999999999e-08)"
1970/01/01/01:00:15.114000,148,15,114000000,base_link,0.00064728195633,-0.0013487274286,-0.696451740465,-0.717602085353,"(1.0, 0.0, 0.0, 0.0, 1.0, 0.0, 0.0, 0.0, 1.0)",0.000485595664941,0.000116765266284,-0.00262473127805,"(1.2184696791468346e-07, 0.0, 0.0, 0.0, 1.2184696791468346e-07, 0.0, 0.0, 0.0, 1.2184696791468346e-07)",-0.00701734609902,0.0932843089104,10.1664857864,"(8.999999999999999e-08, 0.0, 0.0, 0.0, 8.999999999999999e-08, 0.0, 0.0, 0.0, 8.999999999999999e-08)"
1970/01/01/01:00:15.135000,149,15,134000000,base_link,0.000660402344358,-0.00146389496809,-0.696431016727,-0.717621966153,"(1.0, 0.0, 0.0, 0.0, 1.0, 0.0, 0.0, 0.0, 1.0)",0.00894538220018,0.0122101455927,-0.00439723720774,"(1.2184696791468346e-07, 0.0, 0.0, 0.0, 1.2184696791468346e-07, 0.0, 0.0, 0.0, 1.2184696791468346e-07)",0.0406944155693,-5.96423487865e-05,10.1465682983,"(8.999999999999999e-08, 0.0, 0.0, 0.0, 8.999999999999999e-08, 0.0, 0.0, 0.0, 8.999999999999999e-08)"
1970/01/01/01:00:15.154000,150,15,154000000,base_link,0.000677542241108,-0.00157823578726,-0.696454011785,-0.717599476858,"(1.0, 0.0, 0.0, 0.0, 1.0, 0.0, 0.0, 0.0, 1.0)",0.00586151238531,0.00698153022677,0.00175457261503,"(1.2184696791468346e-07, 0.0, 0.0, 0.0, 1.2184696791468346e-07, 0.0, 0.0, 0.0, 1.2184696791468346e-07)",-0.131567686796,-0.0970170870423,10.1514663696,"(8.999999999999999e-08, 0.0, 0.0, 0.0, 8.999999999999999e-08, 0.0, 0.0, 0.0, 8.999999999999999e-08)"
1970/01/01/01:00:15.176000,151,15,176000000,base_link,0.000693969016474,-0.00162980817752,-0.69642155937,-0.717630749161,"(1.0, 0.0, 0.0, 0.0, 1.0, 0.0, 0.0, 0.0, 1.0)",0.00364038604312,0.00441580312327,-0.00914265029132,"(1.2184696791468346e-07, 0.0, 0.0, 0.0, 1.2184696791468346e-07, 0.0, 0.0, 0.0, 1.2184696791468346e-07)",0.0548574738204,-0.00879084225744,10.1941518784,"(8.999999999999999e-08, 0.0, 0.0, 0.0, 8.999999999999999e-08, 0.0, 0.0, 0.0, 8.999999999999999e-08)"
1970/01/01/01:00:15.194000,152,15,194000000,base_link,0.000686244042441,-0.00164259258437,-0.696431302536,-0.71762134317,"(1.0, 0.0, 0.0, 0.0, 1.0, 0.0, 0.0, 0.0, 1.0)",-0.00187560543418,0.000965109211393,-0.0022650223691,"(1.2184696791468346e-07, 0.0, 0.0, 0.0, 1.2184696791468346e-07, 0.0, 0.0, 0.0, 1.2184696791468346e-07)",0.0915924236178,0.101871982217,10.2035684586,"(8.999999999999999e-08, 0.0, 0.0, 0.0, 8.999999999999999e-08, 0.0, 0.0, 0.0, 8.999999999999999e-08)"
1970/01/01/01:00:15.214000,153,15,214000000,base_link,0.0007262515268,-0.00167739196949,-0.696517569232,-0.717537520991,"(1.0, 0.0, 0.0, 0.0, 1.0, 0.0, 0.0, 0.0, 1.0)",-0.000759536051191,0.00566721707582,0.00871456600726,"(1.2184696791468346e-07, 0.0, 0.0, 0.0, 1.2184696791468346e-07, 0.0, 0.0, 0.0, 1.2184696791468346e-07)",-0.174027636647,0.178707823157,10.0922632217,"(8.999999999999999e-08, 0.0, 0.0, 0.0, 8.999999999999999e-08, 0.0, 0.0, 0.0, 8.999999999999999e-08)"
1970/01/01/01:00:15.234000,154,15,234000000,base_link,0.000676964080189,-0.00169072189815,-0.696550587337,-0.717505345823,"(1.0, 0.0, 0.0, 0.0, 1.0, 0.0, 0.0, 0.0, 1.0)",0.00965303834528,-0.00346490414813,0.00318770576268,"(1.2184696791468346e-07, 0.0, 0.0, 0.0, 1.2184696791468346e-07, 0.0, 0.0, 0.0, 1.2184696791468346e-07)",-0.0696431994438,0.219535142183,9.92932605743,"(8.999999999999999e-08, 0.0, 0.0, 0.0, 8.999999999999999e-08, 0.0, 0.0, 0.0, 8.999999999999999e-08)"
1970/01/01/01:00:15.254000,155,15,254000000,base_link,0.000609218371882,-0.00171565151209,-0.696562321941,-0.717494032687,"(1.0, 0.0, 0.0, 0.0, 1.0, 0.0, 0.0, 0.0, 1.0)",0.00606221519411,-0.00461175106466,0.00209187110886,"(1.2184696791468346e-07, 0.0, 0.0, 0.0, 1.2184696791468346e-07, 0.0, 0.0, 0.0, 1.2184696791468346e-07)",-0.090720616281,0.195852458477,9.92246723175,"(8.999999999999999e-08, 0.0, 0.0, 0.0, 8.999999999999999e-08, 0.0, 0.0, 0.0, 8.999999999999999e-08)"
1970/01/01/01:00:15.275000,156,15,275000000,base_link,0.000691882130088,-0.0017923272074,-0.696582883018,-0.717473808785,"(1.0, 0.0, 0.0, 0.0, 1.0, 0.0, 0.0, 0.0, 1.0)",-0.00537369260564,0.00855100248009,0.00212862086482,"(1.2184696791468346e-07, 0.0, 0.0, 0.0, 1.2184696791468346e-07, 0.0, 0.0, 0.0, 1.2184696791468346e-07)",-0.042623065412,-0.00583724444732,9.86258029938,"(8.999999999999999e-08, 0.0, 0.0, 0.0, 8.999999999999999e-08, 0.0, 0.0, 0.0, 8.999999999999999e-08)"
1970/01/01/01:00:15.294000,157,15,293000000,base_link,0.000725106482537,-0.00178301740485,-0.69656794196,-0.717488412668,"(1.0, 0.0, 0.0, 0.0, 1.0, 0.0, 0.0, 0.0, 1.0)",-0.00194933905732,0.0010114335455,-0.00307841296308,"(1.2184696791468346e-07, 0.0, 0.0, 0.0, 1.2184696791468346e-07, 0.0, 0.0, 0.0, 1.2184696791468346e-07)",-0.210758492351,0.133766844869,9.883020401,"(8.999999999999999e-08, 0.0, 0.0, 0.0, 8.999999999999999e-08, 0.0, 0.0, 0.0, 8.999999999999999e-08)"
1970/01/01/01:00:15.315000,158,15,314000000,base_link,0.000776274444149,-0.00171896287967,-0.696531896526,-0.717523446577,"(1.0, 0.0, 0.0, 0.0, 1.0, 0.0, 0.0, 0.0, 1.0)",-0.00658070249483,-0.00193366222084,-0.00047322222963,"(1.2184696791468346e-07, 0.0, 0.0, 0.0, 1.2184696791468346e-07, 0.0, 0.0, 0.0, 1.2184696791468346e-07)",0.0331040173769,-0.0419812723994,9.83896160126,"(8.999999999999999e-08, 0.0, 0.0, 0.0, 8.999999999999999e-08, 0.0, 0.0, 0.0, 8.999999999999999e-08)"
1970/01/01/01:00:15.334000,159,15,334000000,base_link,0.000739337135446,-0.00174296044734,-0.696615216895,-0.717442570726,"(1.0, 0.0, 0.0, 0.0, 1.0, 0.0, 0.0, 0.0, 1.0)",0.00328477425501,0.00125109974761,0.00701408041641,"(1.2184696791468346e-07, 0.0, 0.0, 0.0, 1.2184696791468346e-07, 0.0, 0.0, 0.0, 1.2184696791468346e-07)",0.177407264709,-0.0318195261061,9.66577625275,"(8.999999999999999e-08, 0.0, 0.0, 0.0, 8.999999999999999e-08, 0.0, 0.0, 0.0, 8.999999999999999e-08)"
1970/01/01/01:00:15.354000,160,15,354000000,base_link,0.000732272516919,-0.00168337706893,-0.696671785209,-0.717387772579,"(1.0, 0.0, 0.0, 0.0, 1.0, 0.0, 0.0, 0.0, 1.0)",-0.00346965668723,2.55432678387e-05,0.00637650629506,"(1.2184696791468346e-07, 0.0, 0.0, 0.0, 1.2184696791468346e-07, 0.0, 0.0, 0.0, 1.2184696791468346e-07)",-0.0345378257334,-0.0668164864182,9.57012081146,"(8.999999999999999e-08, 0.0, 0.0, 0.0, 8.999999999999999e-08, 0.0, 0.0, 0.0, 8.999999999999999e-08)"
1970/01/01/01:00:15.376000,161,15,376000000,base_link,0.000779115528634,-0.00162302862645,-0.696720049278,-0.717340941504,"(1.0, 0.0, 0.0, 0.0, 1.0, 0.0, 0.0, 0.0, 1.0)",-0.00881290249527,-0.000344692642102,0.00371087505482,"(1.2184696791468346e-07, 0.0, 0.0, 0.0, 1.2184696791468346e-07, 0.0, 0.0, 0.0, 1.2184696791468346e-07)",-0.0287950225174,-0.0177380722016,9.50051784515,"(8.999999999999999e-08, 0.0, 0.0, 0.0, 8.999999999999999e-08, 0.0, 0.0, 0.0, 8.999999999999999e-08)"
1970/01/01/01:00:15.394000,162,15,394000000,base_link,0.000751356519374,-0.00160508859812,-0.696778826351,-0.717283934598,"(1.0, 0.0, 0.0, 0.0, 1.0, 0.0, 0.0, 0.0, 1.0)",0.00219290028326,-0.00381761719473,0.00800113286823,"(1.2184696791468346e-07, 0.0, 0.0, 0.0, 1.2184696791468346e-07, 0.0, 0.0, 0.0, 1.2184696791468346e-07)",-0.0371006987989,0.0404146574438,9.50146579742,"(8.999999999999999e-08, 0.0, 0.0, 0.0, 8.999999999999999e-08, 0.0, 0.0, 0.0, 8.999999999999999e-08)"
1970/01/01/01:00:15.414000,163,15,414000000,base_link,0.000760691840524,-0.00164148540642,-0.696758057833,-0.717304028767,"(1.0, 0.0, 0.0, 0.0, 1.0, 0.0, 0.0, 0.0, 1.0)",0.00290709873661,0.00386073370464,-0.0063250400126,"(1.2184696791468346e-07, 0.0, 0.0, 0.0, 1.2184696791468346e-07, 0.0, 0.0, 0.0, 1.2184696791468346e-07)",0.0253767687827,0.103100188076,9.67051696777,"(8.999999999999999e-08, 0.0, 0.0, 0.0, 8.999999999999999e-08, 0.0, 0.0, 0.0, 8.999999999999999e-08)"
1970/01/01/01:00:15.434000,164,15,434000000,base_link,0.000755352979039,-0.00164431899996,-0.696745410485,-0.717316254646,"(1.0, 0.0, 0.0, 0.0, 1.0, 0.0, 0.0, 0.0, 1.0)",0.00463133212179,0.00394655624405,0.00859734416008,"(1.2184696791468346e-07, 0.0, 0.0, 0.0, 1.2184696791468346e-07, 0.0, 0.0, 0.0, 1.2184696791468346e-07)",0.0445047169924,-0.0474963150918,9.7475233078,"(8.999999999999999e-08, 0.0, 0.0, 0.0, 8.999999999999999e-08, 0.0, 0.0, 0.0, 8.999999999999999e-08)"
1970/01/01/01:00:15.455000,165,15,454000000,base_link,0.00078821850705,-0.00174601041391,-0.69675256623,-0.717309098901,"(1.0, 0.0, 0.0, 0.0, 1.0, 0.0, 0.0, 0.0, 1.0)",0.0023939430248,0.00437434390187,-0.00342785264365,"(1.2184696791468346e-07, 0.0, 0.0, 0.0, 1.2184696791468346e-07, 0.0, 0.0, 0.0, 1.2184696791468346e-07)",0.0597916394472,0.0613360963762,9.78873348236,"(8.999999999999999e-08, 0.0, 0.0, 0.0, 8.999999999999999e-08, 0.0, 0.0, 0.0, 8.999999999999999e-08)"
1970/01/01/01:00:15.476000,166,15,476000000,base_link,0.000804281354257,-0.0018390033604,-0.696744253423,-0.717316821653,"(1.0, 0.0, 0.0, 0.0, 1.0, 0.0, 0.0, 0.0, 1.0)",0.0110878832638,0.0118073401973,0.00231413403526,"(1.2184696791468346e-07, 0.0, 0.0, 0.0, 1.2184696791468346e-07, 0.0, 0.0, 0.0, 1.2184696791468346e-07)",-0.072087533772,-0.0194174461067,9.7806892395,"(8.999999999999999e-08, 0.0, 0.0, 0.0, 8.999999999999999e-08, 0.0, 0.0, 0.0, 8.999999999999999e-08)"
1970/01/01/01:00:15.500000,167,15,494000000,base_link,0.000825438166711,-0.00183912132219,-0.69675316814,-0.71730824411,"(1.0, 0.0, 0.0, 0.0, 1.0, 0.0, 0.0, 0.0, 1.0)",-0.00484923366457,-0.00662570586428,0.000396512623411,"(1.2184696791468346e-07, 0.0, 0.0, 0.0, 1.2184696791468346e-07, 0.0, 0.0, 0.0, 1.2184696791468346e-07)",0.0737206935883,0.0113379275426,9.87598705292,"(8.999999999999999e-08, 0.0, 0.0, 0.0, 8.999999999999999e-08, 0.0, 0.0, 0.0, 8.999999999999999e-08)"
1970/01/01/01:00:15.514000,168,15,513000000,base_link,0.000839044190154,-0.00186400640206,-0.696797276134,-0.717265316228,"(1.0, 0.0, 0.0, 0.0, 1.0, 0.0, 0.0, 0.0, 1.0)",-0.00160206959117,0.0086671281606,0.00722198188305,"(1.2184696791468346e-07, 0.0, 0.0, 0.0, 1.2184696791468346e-07, 0.0, 0.0, 0.0, 1.2184696791468346e-07)",-0.0328384786844,0.076091684401,9.72670841217,"(8.999999999999999e-08, 0.0, 0.0, 0.0, 8.999999999999999e-08, 0.0, 0.0, 0.0, 8.999999999999999e-08)"
1970/01/01/01:00:15.535000,169,15,534000000,base_link,0.000862258501446,-0.00197752930895,-0.696843794401,-0.717219809485,"(1.0, 0.0, 0.0, 0.0, 1.0, 0.0, 0.0, 0.0, 1.0)",0.00523289339617,0.00718853902072,0.00543876131997,"(1.2184696791468346e-07, 0.0, 0.0, 0.0, 1.2184696791468346e-07, 0.0, 0.0, 0.0, 1.2184696791468346e-07)",-0.00461471546441,0.158774495125,9.86546039581,"(8.999999999999999e-08, 0.0, 0.0, 0.0, 8.999999999999999e-08, 0.0, 0.0, 0.0, 8.999999999999999e-08)"
1970/01/01/01:00:15.554000,170,15,554000000,base_link,0.000923246143694,-0.0019277230939,-0.696840762462,-0.717222841424,"(1.0, 0.0, 0.0, 0.0, 1.0, 0.0, 0.0, 0.0, 1.0)",-0.00812355615199,-0.00308310845867,0.00263298419304,"(1.2184696791468346e-07, 0.0, 0.0, 0.0, 1.2184696791468346e-07, 0.0, 0.0, 0.0, 1.2184696791468346e-07)",-0.0276312660426,0.0713949948549,9.80191230774,"(8.999999999999999e-08, 0.0, 0.0, 0.0, 8.999999999999999e-08, 0.0, 0.0, 0.0, 8.999999999999999e-08)"
1970/01/01/01:00:15.577000,171,15,573000000,base_link,0.000968561249833,-0.00201282581285,-0.696795053546,-0.717266864466,"(1.0, 0.0, 0.0, 0.0, 1.0, 0.0, 0.0, 0.0, 1.0)",0.00112312356941,0.00723636010662,-0.0102742118761,"(1.2184696791468346e-07, 0.0, 0.0, 0.0, 1.2184696791468346e-07, 0.0, 0.0, 0.0, 1.2184696791468346e-07)",-0.0522023811936,0.0835998803377,9.85858726501,"(8.999999999999999e-08, 0.0, 0.0, 0.0, 8.999999999999999e-08, 0.0, 0.0, 0.0, 8.999999999999999e-08)"
1970/01/01/01:00:15.594000,172,15,594000000,base_link,0.00100820591733,-0.00202110639266,-0.696789587627,-0.717272077504,"(1.0, 0.0, 0.0, 0.0, 1.0, 0.0, 0.0, 0.0, 1.0)",-0.00207961862907,-0.00113079498988,0.00315988319926,"(1.2184696791468346e-07, 0.0, 0.0, 0.0, 1.2184696791468346e-07, 0.0, 0.0, 0.0, 1.2184696791468346e-07)",0.0247479788959,0.00958197843284,9.82015037537,"(8.999999999999999e-08, 0.0, 0.0, 0.0, 8.999999999999999e-08, 0.0, 0.0, 0.0, 8.999999999999999e-08)"
1970/01/01/01:00:15.614000,173,15,614000000,base_link,0.000975299724193,-0.00204143636132,-0.696804524075,-0.717257478231,"(1.0, 0.0, 0.0, 0.0, 1.0, 0.0, 0.0, 0.0, 1.0)",0.00518337683752,0.001512656454,0.0024245060049,"(1.2184696791468346e-07, 0.0, 0.0, 0.0, 1.2184696791468346e-07, 0.0, 0.0, 0.0, 1.2184696791468346e-07)",0.0406016856432,-0.170973703265,9.73263168335,"(8.999999999999999e-08, 0.0, 0.0, 0.0, 8.999999999999999e-08, 0.0, 0.0, 0.0, 8.999999999999999e-08)"
1970/01/01/01:00:15.635000,174,15,634000000,base_link,0.00096990846726,-0.00207486152869,-0.69676294094,-0.717297881254,"(1.0, 0.0, 0.0, 0.0, 1.0, 0.0, 0.0, 0.0, 1.0)",0.00135258410592,-0.00221523363143,-0.000690293731168,"(1.2184696791468346e-07, 0.0, 0.0, 0.0, 1.2184696791468346e-07, 0.0, 0.0, 0.0, 1.2184696791468346e-07)",-0.00725665781647,-0.0179293919355,9.76676654816,"(8.999999999999999e-08, 0.0, 0.0, 0.0, 8.999999999999999e-08, 0.0, 0.0, 0.0, 8.999999999999999e-08)"
1970/01/01/01:00:15.654000,175,15,653000000,base_link,0.000969547049802,-0.00211911625469,-0.696795947191,-0.717265633646,"(1.0, 0.0, 0.0, 0.0, 1.0, 0.0, 0.0, 0.0, 1.0)",0.0029565251898,0.00192835391499,0.00339910807088,"(1.2184696791468346e-07, 0.0, 0.0, 0.0, 1.2184696791468346e-07, 0.0, 0.0, 0.0, 1.2184696791468346e-07)",0.0520015656948,0.0607416667044,9.76362419128,"(8.999999999999999e-08, 0.0, 0.0, 0.0, 8.999999999999999e-08, 0.0, 0.0, 0.0, 8.999999999999999e-08)"
1970/01/01/01:00:15.677000,176,15,676000000,base_link,0.00104319874989,-0.00219082541312,-0.696853241222,-0.717209604021,"(1.0, 0.0, 0.0, 0.0, 1.0, 0.0, 0.0, 0.0, 1.0)",-0.00264636659995,0.00706796254963,0.00241915113293,"(1.2184696791468346e-07, 0.0, 0.0, 0.0, 1.2184696791468346e-07, 0.0, 0.0, 0.0, 1.2184696791468346e-07)",-0.221852436662,-0.0437966883183,9.69871425629,"(8.999999999999999e-08, 0.0, 0.0, 0.0, 8.999999999999999e-08, 0.0, 0.0, 0.0, 8.999999999999999e-08)"
1970/01/01/01:00:15.694000,177,15,694000000,base_link,0.00105637778954,-0.00215964407153,-0.696828175701,-0.717234079486,"(1.0, 0.0, 0.0, 0.0, 1.0, 0.0, 0.0, 0.0, 1.0)",-0.00363009306602,-0.00360900140367,-0.00728841451928,"(1.2184696791468346e-07, 0.0, 0.0, 0.0, 1.2184696791468346e-07, 0.0, 0.0, 0.0, 1.2184696791468346e-07)",-0.0782568752766,-0.00472143990919,9.56094551086,"(8.999999999999999e-08, 0.0, 0.0, 0.0, 8.999999999999999e-08, 0.0, 0.0, 0.0, 8.999999999999999e-08)"
1970/01/01/01:00:15.715000,178,15,713000000,base_link,0.00107965951933,-0.00217521679698,-0.696803607381,-0.717257889163,"(1.0, 0.0, 0.0, 0.0, 1.0, 0.0, 0.0, 0.0, 1.0)",-0.000697324168868,0.0020795383025,-0.00564924767241,"(1.2184696791468346e-07, 0.0, 0.0, 0.0, 1.2184696791468346e-07, 0.0, 0.0, 0.0, 1.2184696791468346e-07)",0.0294872578233,-0.131316393614,9.51866054535,"(8.999999999999999e-08, 0.0, 0.0, 0.0, 8.999999999999999e-08, 0.0, 0.0, 0.0, 8.999999999999999e-08)"
1970/01/01/01:00:15.734000,179,15,734000000,base_link,0.00103882926592,-0.00223524757406,-0.696784015023,-0.717276891465,"(1.0, 0.0, 0.0, 0.0, 1.0, 0.0, 0.0, 0.0, 1.0)",0.00624404940754,0.00168083026074,-0.00687490776181,"(1.2184696791468346e-07, 0.0, 0.0, 0.0, 1.2184696791468346e-07, 0.0, 0.0, 0.0, 1.2184696791468346e-07)",-0.00205317139626,0.160682290792,9.65683460236,"(8.999999999999999e-08, 0.0, 0.0, 0.0, 8.999999999999999e-08, 0.0, 0.0, 0.0, 8.999999999999999e-08)"
1970/01/01/01:00:15.754000,180,15,754000000,base_link,0.0010718051413,-0.0022799269378,-0.696757367019,-0.717302612238,"(1.0, 0.0, 0.0, 0.0, 1.0, 0.0, 0.0, 0.0, 1.0)",0.000510764191858,0.00608704704791,-0.00135615374893,"(1.2184696791468346e-07, 0.0, 0.0, 0.0, 1.2184696791468346e-07, 0.0, 0.0, 0.0, 1.2184696791468346e-07)",-0.0834433287382,0.137539803982,9.52281856537,"(8.999999999999999e-08, 0.0, 0.0, 0.0, 8.999999999999999e-08, 0.0, 0.0, 0.0, 8.999999999999999e-08)"
1970/01/01/01:00:15.776000,181,15,776000000,base_link,0.00111782130923,-0.00227390845838,-0.69675795049,-0.71730186018,"(1.0, 0.0, 0.0, 0.0, 1.0, 0.0, 0.0, 0.0, 1.0)",-0.00676255906001,0.0023429277353,0.000241765053943,"(1.2184696791468346e-07, 0.0, 0.0, 0.0, 1.2184696791468346e-07, 0.0, 0.0, 0.0, 1.2184696791468346e-07)",0.0325901694596,0.110952667892,9.72132110596,"(8.999999999999999e-08, 0.0, 0.0, 0.0, 8.999999999999999e-08, 0.0, 0.0, 0.0, 8.999999999999999e-08)"
1970/01/01/01:00:15.794000,182,15,794000000,base_link,0.0011174882915,-0.00226910812167,-0.696752800672,-0.717307009998,"(1.0, 0.0, 0.0, 0.0, 1.0, 0.0, 0.0, 0.0, 1.0)",0.00194447266404,-0.00512933824211,-0.00310105108656,"(1.2184696791468346e-07, 0.0, 0.0, 0.0, 1.2184696791468346e-07, 0.0, 0.0, 0.0, 1.2184696791468346e-07)",-0.0614052526653,0.0667028203607,9.69860267639,"(8.999999999999999e-08, 0.0, 0.0, 0.0, 8.999999999999999e-08, 0.0, 0.0, 0.0, 8.999999999999999e-08)"
1970/01/01/01:00:15.814000,183,15,814000000,base_link,0.00106706148057,-0.00235491852901,-0.696680700585,-0.717376665568,"(1.0, 0.0, 0.0, 0.0, 1.0, 0.0, 0.0, 0.0, 1.0)",0.0110696358606,0.00366242276505,-0.0116956513375,"(1.2184696791468346e-07, 0.0, 0.0, 0.0, 1.2184696791468346e-07, 0.0, 0.0, 0.0, 1.2184696791468346e-07)",-0.0410479567945,-0.0559097416699,9.59111213684,"(8.999999999999999e-08, 0.0, 0.0, 0.0, 8.999999999999999e-08, 0.0, 0.0, 0.0, 8.999999999999999e-08)"
1970/01/01/01:00:15.835000,184,15,834000000,base_link,0.00106765021936,-0.00236987670896,-0.696669460547,-0.717387652724,"(1.0, 0.0, 0.0, 0.0, 1.0, 0.0, 0.0, 0.0, 1.0)",-0.00161504256539,0.000255429011304,-0.00802663527429,"(1.2184696791468346e-07, 0.0, 0.0, 0.0, 1.2184696791468346e-07, 0.0, 0.0, 0.0, 1.2184696791468346e-07)",-0.100931763649,0.111667916179,9.30768108368,"(8.999999999999999e-08, 0.0, 0.0, 0.0, 8.999999999999999e-08, 0.0, 0.0, 0.0, 8.999999999999999e-08)"
1970/01/01/01:00:15.854000,185,15,852000000,base_link,0.00106849998873,-0.00236912802617,-0.696693305785,-0.717364481836,"(1.0, 0.0, 0.0, 0.0, 1.0, 0.0, 0.0, 0.0, 1.0)",-0.00168023118749,-0.00347192026675,0.0108569804579,"(1.2184696791468346e-07, 0.0, 0.0, 0.0, 1.2184696791468346e-07, 0.0, 0.0, 0.0, 1.2184696791468346e-07)",0.0603467226028,-0.039440639317,9.48973464966,"(8.999999999999999e-08, 0.0, 0.0, 0.0, 8.999999999999999e-08, 0.0, 0.0, 0.0, 8.999999999999999e-08)"
1970/01/01/01:00:15.875000,186,15,875000000,base_link,0.00102397365428,-0.00237251870721,-0.696619866219,-0.71743581406,"(1.0, 0.0, 0.0, 0.0, 1.0, 0.0, 0.0, 0.0, 1.0)",0.00507773691788,-0.00149691454135,-0.0147169874981,"(1.2184696791468346e-07, 0.0, 0.0, 0.0, 1.2184696791468346e-07, 0.0, 0.0, 0.0, 1.2184696791468346e-07)",-0.0169829428196,0.147932946682,9.48554420471,"(8.999999999999999e-08, 0.0, 0.0, 0.0, 8.999999999999999e-08, 0.0, 0.0, 0.0, 8.999999999999999e-08)"
1970/01/01/01:00:15.895000,187,15,893000000,base_link,0.00102386116664,-0.00239192984165,-0.696593646928,-0.717461190414,"(1.0, 0.0, 0.0, 0.0, 1.0, 0.0, 0.0, 0.0, 1.0)",0.00140232103877,-0.00241939118132,-0.000183700060006,"(1.2184696791468346e-07, 0.0, 0.0, 0.0, 1.2184696791468346e-07, 0.0, 0.0, 0.0, 1.2184696791468346e-07)",-0.0891810804605,0.111126683652,9.67273426056,"(8.999999999999999e-08, 0.0, 0.0, 0.0, 8.999999999999999e-08, 0.0, 0.0, 0.0, 8.999999999999999e-08)"
1970/01/01/01:00:15.914000,188,15,913000000,base_link,0.0010077685203,-0.00244973041659,-0.696628841522,-0.717426838757,"(1.0, 0.0, 0.0, 0.0, 1.0, 0.0, 0.0, 0.0, 1.0)",-0.00245312228799,0.00916986353695,0.00640390068293,"(1.2184696791468346e-07, 0.0, 0.0, 0.0, 1.2184696791468346e-07, 0.0, 0.0, 0.0, 1.2184696791468346e-07)",-0.128714904189,0.0913467556238,9.60244846344,"(8.999999999999999e-08, 0.0, 0.0, 0.0, 8.999999999999999e-08, 0.0, 0.0, 0.0, 8.999999999999999e-08)"
1970/01/01/01:00:15.934000,189,15,934000000,base_link,0.00113127183385,-0.00241718197776,-0.696593808271,-0.717460776189,"(1.0, 0.0, 0.0, 0.0, 1.0, 0.0, 0.0, 0.0, 1.0)",-0.00598103925586,0.00604579085484,-0.00754931708798,"(1.2184696791468346e-07, 0.0, 0.0, 0.0, 1.2184696791468346e-07, 0.0, 0.0, 0.0, 1.2184696791468346e-07)",-0.0897888168693,-0.0449711158872,9.85156726837,"(8.999999999999999e-08, 0.0, 0.0, 0.0, 8.999999999999999e-08, 0.0, 0.0, 0.0, 8.999999999999999e-08)"
1970/01/01/01:00:15.954000,190,15,954000000,base_link,0.00119152684533,-0.00252295789054,-0.696609941295,-0.717444643166,"(1.0, 0.0, 0.0, 0.0, 1.0, 0.0, 0.0, 0.0, 1.0)",0.00373988319188,0.00984957627952,0.00178799498826,"(1.2184696791468346e-07, 0.0, 0.0, 0.0, 1.2184696791468346e-07, 0.0, 0.0, 0.0, 1.2184696791468346e-07)",0.0603357665241,0.123244427145,9.69760131836,"(8.999999999999999e-08, 0.0, 0.0, 0.0, 8.999999999999999e-08, 0.0, 0.0, 0.0, 8.999999999999999e-08)"
1970/01/01/01:00:15.975000,191,15,975000000,base_link,0.00112490008646,-0.00249539039426,-0.696657164204,-0.717399021837,"(1.0, 0.0, 0.0, 0.0, 1.0, 0.0, 0.0, 0.0, 1.0)",0.000421230593929,-0.00911869574338,0.00501296622679,"(1.2184696791468346e-07, 0.0, 0.0, 0.0, 1.2184696791468346e-07, 0.0, 0.0, 0.0, 1.2184696791468346e-07)",-0.160457372665,0.190897539258,9.82330417633,"(8.999999999999999e-08, 0.0, 0.0, 0.0, 8.999999999999999e-08, 0.0, 0.0, 0.0, 8.999999999999999e-08)"
1970/01/01/01:00:15.994000,192,15,994000000,base_link,0.00117070469696,-0.00257578694836,-0.696749597511,-0.717308948753,"(1.0, 0.0, 0.0, 0.0, 1.0, 0.0, 0.0, 0.0, 1.0)",0.00286118825898,0.00942760426551,0.013023564592,"(1.2184696791468346e-07, 0.0, 0.0, 0.0, 1.2184696791468346e-07, 0.0, 0.0, 0.0, 1.2184696791468346e-07)",0.0683413147926,-0.09121504426,9.79008293152,"(8.999999999999999e-08, 0.0, 0.0, 0.0, 8.999999999999999e-08, 0.0, 0.0, 0.0, 8.999999999999999e-08)"
1970/01/01/01:00:16.014000,193,16,14000000,base_link,0.00115247540296,-0.00253133926881,-0.696755260994,-0.717303538151,"(1.0, 0.0, 0.0, 0.0, 1.0, 0.0, 0.0, 0.0, 1.0)",-0.00237278151326,-0.00593257509172,-0.00250128074549,"(1.2184696791468346e-07, 0.0, 0.0, 0.0, 1.2184696791468346e-07, 0.0, 0.0, 0.0, 1.2184696791468346e-07)",-0.0650916397572,-0.127372786403,9.80852603912,"(8.999999999999999e-08, 0.0, 0.0, 0.0, 8.999999999999999e-08, 0.0, 0.0, 0.0, 8.999999999999999e-08)"
1970/01/01/01:00:16.034000,194,16,34000000,base_link,0.00111802150676,-0.00249082083624,-0.69677531104,-0.717284246748,"(1.0, 0.0, 0.0, 0.0, 1.0, 0.0, 0.0, 0.0, 1.0)",-0.00125572620891,-0.00681670475751,0.00103528413456,"(1.2184696791468346e-07, 0.0, 0.0, 0.0, 1.2184696791468346e-07, 0.0, 0.0, 0.0, 1.2184696791468346e-07)",0.0149222463369,-0.01942599006,10.0025148392,"(8.999999999999999e-08, 0.0, 0.0, 0.0, 8.999999999999999e-08, 0.0, 0.0, 0.0, 8.999999999999999e-08)"
1970/01/01/01:00:16.055000,195,16,54000000,base_link,0.00115181978074,-0.00243580985583,-0.696764391714,-0.717294997488,"(1.0, 0.0, 0.0, 0.0, 1.0, 0.0, 0.0, 0.0, 1.0)",-0.00863109063357,-0.0059848530218,-0.00197726232,"(1.2184696791468346e-07, 0.0, 0.0, 0.0, 1.2184696791468346e-07, 0.0, 0.0, 0.0, 1.2184696791468346e-07)",0.0505595989525,0.0081865247339,10.0245275497,"(8.999999999999999e-08, 0.0, 0.0, 0.0, 8.999999999999999e-08, 0.0, 0.0, 0.0, 8.999999999999999e-08)"
1970/01/01/01:00:16.076000,196,16,76000000,base_link,0.00114217399702,-0.00246800584987,-0.696806143436,-0.717254341584,"(1.0, 0.0, 0.0, 0.0, 1.0, 0.0, 0.0, 0.0, 1.0)",-0.000468662707135,0.00564623065293,0.00518433330581,"(1.2184696791468346e-07, 0.0, 0.0, 0.0, 1.2184696791468346e-07, 0.0, 0.0, 0.0, 1.2184696791468346e-07)",-0.20316426456,0.0707972198725,9.92932510376,"(8.999999999999999e-08, 0.0, 0.0, 0.0, 8.999999999999999e-08, 0.0, 0.0, 0.0, 8.999999999999999e-08)"
1970/01/01/01:00:16.094000,197,16,94000000,base_link,0.00108805044649,-0.00253141817068,-0.696805012056,-0.717255472963,"(1.0, 0.0, 0.0, 0.0, 1.0, 0.0, 0.0, 0.0, 1.0)",0.0123022254556,0.00402384251356,-0.00213684001938,"(1.2184696791468346e-07, 0.0, 0.0, 0.0, 1.2184696791468346e-07, 0.0, 0.0, 0.0, 1.2184696791468346e-07)",-0.0669987499714,0.186125293374,9.94672393799,"(8.999999999999999e-08, 0.0, 0.0, 0.0, 8.999999999999999e-08, 0.0, 0.0, 0.0, 8.999999999999999e-08)"
1970/01/01/01:00:16.114000,198,16,113000000,base_link,0.00108558386804,-0.00256534770082,-0.69679124189,-0.717268653073,"(1.0, 0.0, 0.0, 0.0, 1.0, 0.0, 0.0, 0.0, 1.0)",0.00109434407204,0.00255738012493,-0.00219579972327,"(1.2184696791468346e-07, 0.0, 0.0, 0.0, 1.2184696791468346e-07, 0.0, 0.0, 0.0, 1.2184696791468346e-07)",-0.081672206521,0.0133613003418,9.97205162048,"(8.999999999999999e-08, 0.0, 0.0, 0.0, 8.999999999999999e-08, 0.0, 0.0, 0.0, 8.999999999999999e-08)"
1970/01/01/01:00:16.134000,199,16,134000000,base_link,0.00113044499006,-0.00252523205052,-0.696780290295,-0.717279351787,"(1.0, 0.0, 0.0, 0.0, 1.0, 0.0, 0.0, 0.0, 1.0)",-0.000648464425467,-0.000607041234616,-0.00580874551088,"(1.2184696791468346e-07, 0.0, 0.0, 0.0, 1.2184696791468346e-07, 0.0, 0.0, 0.0, 1.2184696791468346e-07)",0.0378878898919,0.0550761185586,9.99234962463,"(8.999999999999999e-08, 0.0, 0.0, 0.0, 8.999999999999999e-08, 0.0, 0.0, 0.0, 8.999999999999999e-08)"
1970/01/01/01:00:16.154000,200,16,153000000,base_link,0.00112285337129,-0.00260006040502,-0.696752485888,-0.717306060377,"(1.0, 0.0, 0.0, 0.0, 1.0, 0.0, 0.0, 0.0, 1.0)",0.00747978594154,0.00513847731054,-0.00452612247318,"(1.2184696791468346e-07, 0.0, 0.0, 0.0, 1.2184696791468346e-07, 0.0, 0.0, 0.0, 1.2184696791468346e-07)",-0.0662370249629,-0.00778155913576,9.82317256927,"(8.999999999999999e-08, 0.0, 0.0, 0.0, 8.999999999999999e-08, 0.0, 0.0, 0.0, 8.999999999999999e-08)"
1970/01/01/01:00:16.177000,201,16,174000000,base_link,0.00110967499018,-0.00259815054362,-0.696791939289,-0.717267871381,"(1.0, 0.0, 0.0, 0.0, 1.0, 0.0, 0.0, 0.0, 1.0)",-0.00746846711263,5.96956524532e-05,-0.00284281885251,"(1.2184696791468346e-07, 0.0, 0.0, 0.0, 1.2184696791468346e-07, 0.0, 0.0, 0.0, 1.2184696791468346e-07)",-0.215548932552,-0.111781336367,9.91204166412,"(8.999999999999999e-08, 0.0, 0.0, 0.0, 8.999999999999999e-08, 0.0, 0.0, 0.0, 8.999999999999999e-08)"
1970/01/01/01:00:16.194000,202,16,194000000,base_link,0.00117593024763,-0.00267874017474,-0.696703993304,-0.717352782792,"(1.0, 0.0, 0.0, 0.0, 1.0, 0.0, 0.0, 0.0, 1.0)",0.00325612840243,0.00885489583015,-0.0137556884438,"(1.2184696791468346e-07, 0.0, 0.0, 0.0, 1.2184696791468346e-07, 0.0, 0.0, 0.0, 1.2184696791468346e-07)",-0.18900321424,-0.00920314248651,9.859126091,"(8.999999999999999e-08, 0.0, 0.0, 0.0, 8.999999999999999e-08, 0.0, 0.0, 0.0, 8.999999999999999e-08)"
1970/01/01/01:00:16.215000,203,16,214000000,base_link,0.00112031748102,-0.00274339870871,-0.696769615947,-0.717289014611,"(1.0, 0.0, 0.0, 0.0, 1.0, 0.0, 0.0, 0.0, 1.0)",0.0033857927192,0.00105353875551,0.0097508886829,"(1.2184696791468346e-07, 0.0, 0.0, 0.0, 1.2184696791468346e-07, 0.0, 0.0, 0.0, 1.2184696791468346e-07)",-0.0289050005376,-0.104152485728,9.75731754303,"(8.999999999999999e-08, 0.0, 0.0, 0.0, 8.999999999999999e-08, 0.0, 0.0, 0.0, 8.999999999999999e-08)"
1970/01/01/01:00:16.234000,204,16,234000000,base_link,0.00110137683548,-0.00272573613342,-0.696782491151,-0.717276476582,"(1.0, 0.0, 0.0, 0.0, 1.0, 0.0, 0.0, 0.0, 1.0)",-0.00266239815392,-0.00565403187647,-0.00349717447534,"(1.2184696791468346e-07, 0.0, 0.0, 0.0, 1.2184696791468346e-07, 0.0, 0.0, 0.0, 1.2184696791468346e-07)",-0.0783891528845,0.0230079106987,9.7401266098,"(8.999999999999999e-08, 0.0, 0.0, 0.0, 8.999999999999999e-08, 0.0, 0.0, 0.0, 8.999999999999999e-08)"
1970/01/01/01:00:16.254000,205,16,254000000,base_link,0.0010991516959,-0.00279768928259,-0.696779924144,-0.717278790707,"(1.0, 0.0, 0.0, 0.0, 1.0, 0.0, 0.0, 0.0, 1.0)",0.00377140380442,0.00695270067081,-0.00320904748514,"(1.2184696791468346e-07, 0.0, 0.0, 0.0, 1.2184696791468346e-07, 0.0, 0.0, 0.0, 1.2184696791468346e-07)",-0.0555170178413,0.133906006813,9.60632610321,"(8.999999999999999e-08, 0.0, 0.0, 0.0, 8.999999999999999e-08, 0.0, 0.0, 0.0, 8.999999999999999e-08)"
1970/01/01/01:00:16.274000,206,16,274000000,base_link,0.0011826591731,-0.00287554397837,-0.696834656437,-0.717225154233,"(1.0, 0.0, 0.0, 0.0, 1.0, 0.0, 0.0, 0.0, 1.0)",-0.00265840278007,0.0100624365732,0.00763774756342,"(1.2184696791468346e-07, 0.0, 0.0, 0.0, 1.2184696791468346e-07, 0.0, 0.0, 0.0, 1.2184696791468346e-07)",0.0631492510438,0.0143500277773,9.82816886902,"(8.999999999999999e-08, 0.0, 0.0, 0.0, 8.999999999999999e-08, 0.0, 0.0, 0.0, 8.999999999999999e-08)"
1970/01/01/01:00:16.294000,207,16,293000000,base_link,0.00118538538273,-0.00291579701751,-0.696860589261,-0.717199727171,"(1.0, 0.0, 0.0, 0.0, 1.0, 0.0, 0.0, 0.0, 1.0)",0.00953692849725,0.0017086355947,0.00111954053864,"(1.2184696791468346e-07, 0.0, 0.0, 0.0, 1.2184696791468346e-07, 0.0, 0.0, 0.0, 1.2184696791468346e-07)",-0.100712329149,0.144028484821,9.77306556702,"(8.999999999999999e-08, 0.0, 0.0, 0.0, 8.999999999999999e-08, 0.0, 0.0, 0.0, 8.999999999999999e-08)"
1970/01/01/01:00:16.314000,208,16,314000000,base_link,0.00109135502283,-0.00299328276372,-0.696867125315,-0.71719327541,"(1.0, 0.0, 0.0, 0.0, 1.0, 0.0, 0.0, 0.0, 1.0)",0.0104900598526,-0.00143734843004,-0.000507436168846,"(1.2184696791468346e-07, 0.0, 0.0, 0.0, 1.2184696791468346e-07, 0.0, 0.0, 0.0, 1.2184696791468346e-07)",-0.0851417481899,0.0219329278916,9.72724914551,"(8.999999999999999e-08, 0.0, 0.0, 0.0, 8.999999999999999e-08, 0.0, 0.0, 0.0, 8.999999999999999e-08)"
1970/01/01/01:00:16.334000,209,16,334000000,base_link,0.00107266503579,-0.00293018020579,-0.696914377201,-0.717147709399,"(1.0, 0.0, 0.0, 0.0, 1.0, 0.0, 0.0, 0.0, 1.0)",-0.00404528062791,-0.0105982981622,0.00408446928486,"(1.2184696791468346e-07, 0.0, 0.0, 0.0, 1.2184696791468346e-07, 0.0, 0.0, 0.0, 1.2184696791468346e-07)",-0.0250200591981,0.109599657357,9.72116947174,"(8.999999999999999e-08, 0.0, 0.0, 0.0, 8.999999999999999e-08, 0.0, 0.0, 0.0, 8.999999999999999e-08)"
1970/01/01/01:00:16.354000,210,16,354000000,base_link,0.00107363498953,-0.00300226489922,-0.696905407166,-0.717156089377,"(1.0, 0.0, 0.0, 0.0, 1.0, 0.0, 0.0, 0.0, 1.0)",0.00658451626077,0.00910817924887,-0.00220824033022,"(1.2184696791468346e-07, 0.0, 0.0, 0.0, 1.2184696791468346e-07, 0.0, 0.0, 0.0, 1.2184696791468346e-07)",0.0916414633393,0.0268501602113,9.68795490265,"(8.999999999999999e-08, 0.0, 0.0, 0.0, 8.999999999999999e-08, 0.0, 0.0, 0.0, 8.999999999999999e-08)"
1970/01/01/01:00:16.375000,211,16,373000000,base_link,0.00104899908644,-0.00305223468026,-0.696960979762,-0.717101865481,"(1.0, 0.0, 0.0, 0.0, 1.0, 0.0, 0.0, 0.0, 1.0)",0.00641045346856,-0.0011455869535,0.00685168523341,"(1.2184696791468346e-07, 0.0, 0.0, 0.0, 1.2184696791468346e-07, 0.0, 0.0, 0.0, 1.2184696791468346e-07)",-0.0145410206169,0.0457842983305,9.71239757538,"(8.999999999999999e-08, 0.0, 0.0, 0.0, 8.999999999999999e-08, 0.0, 0.0, 0.0, 8.999999999999999e-08)"
1970/01/01/01:00:16.394000,212,16,393000000,base_link,0.000940476549155,-0.0031323983154,-0.697000635995,-0.717063220772,"(1.0, 0.0, 0.0, 0.0, 1.0, 0.0, 0.0, 0.0, 1.0)",0.010848232545,-0.000290926545858,0.00654724566266,"(1.2184696791468346e-07, 0.0, 0.0, 0.0, 1.2184696791468346e-07, 0.0, 0.0, 0.0, 1.2184696791468346e-07)",-0.0450865253806,-0.116978764534,9.74288749695,"(8.999999999999999e-08, 0.0, 0.0, 0.0, 8.999999999999999e-08, 0.0, 0.0, 0.0, 8.999999999999999e-08)"
1970/01/01/01:00:16.414000,213,16,414000000,base_link,0.000897314307331,-0.00311569688582,-0.696982460825,-0.71708089018,"(1.0, 0.0, 0.0, 0.0, 1.0, 0.0, 0.0, 0.0, 1.0)",-0.00319956219755,-0.00703208241612,-0.0129926083609,"(1.2184696791468346e-07, 0.0, 0.0, 0.0, 1.2184696791468346e-07, 0.0, 0.0, 0.0, 1.2184696791468346e-07)",-0.0202437695116,0.293827295303,9.81127357483,"(8.999999999999999e-08, 0.0, 0.0, 0.0, 8.999999999999999e-08, 0.0, 0.0, 0.0, 8.999999999999999e-08)"
1970/01/01/01:00:16.434000,214,16,434000000,base_link,0.000976890603088,-0.00311856180138,-0.696986483873,-0.717076867132,"(1.0, 0.0, 0.0, 0.0, 1.0, 0.0, 0.0, 0.0, 1.0)",-0.00795526616275,0.00763814523816,-0.00103189412039,"(1.2184696791468346e-07, 0.0, 0.0, 0.0, 1.2184696791468346e-07, 0.0, 0.0, 0.0, 1.2184696791468346e-07)",-0.0878984332085,0.0883240625262,9.4694519043,"(8.999999999999999e-08, 0.0, 0.0, 0.0, 8.999999999999999e-08, 0.0, 0.0, 0.0, 8.999999999999999e-08)"
1970/01/01/01:00:16.455000,215,16,454000000,base_link,0.00105365499611,-0.00329381975738,-0.697019162169,-0.717044188836,"(1.0, 0.0, 0.0, 0.0, 1.0, 0.0, 0.0, 0.0, 1.0)",0.0122784618288,0.0160109065473,0.002717330819,"(1.2184696791468346e-07, 0.0, 0.0, 0.0, 1.2184696791468346e-07, 0.0, 0.0, 0.0, 1.2184696791468346e-07)",-0.143976762891,0.0545065365732,9.59729194641,"(8.999999999999999e-08, 0.0, 0.0, 0.0, 8.999999999999999e-08, 0.0, 0.0, 0.0, 8.999999999999999e-08)"
1970/01/01/01:00:16.474000,216,16,474000000,base_link,0.00101735643442,-0.00327068039669,-0.697076942206,-0.716988263261,"(1.0, 0.0, 0.0, 0.0, 1.0, 0.0, 0.0, 0.0, 1.0)",-0.000470748636872,-0.00906905997545,0.00634200777858,"(1.2184696791468346e-07, 0.0, 0.0, 0.0, 1.2184696791468346e-07, 0.0, 0.0, 0.0, 1.2184696791468346e-07)",-0.178680300713,-0.139202147722,9.55756568909,"(8.999999999999999e-08, 0.0, 0.0, 0.0, 8.999999999999999e-08, 0.0, 0.0, 0.0, 8.999999999999999e-08)"
1970/01/01/01:00:16.494000,217,16,494000000,base_link,0.00105155514463,-0.00330095582799,-0.697080081487,-0.716985039685,"(1.0, 0.0, 0.0, 0.0, 1.0, 0.0, 0.0, 0.0, 1.0)",-0.00203688559122,0.00484709814191,-0.000681698438711,"(1.2184696791468346e-07, 0.0, 0.0, 0.0, 1.2184696791468346e-07, 0.0, 0.0, 0.0, 1.2184696791468346e-07)",-0.0244451295584,-0.0197720844299,9.51844215393,"(8.999999999999999e-08, 0.0, 0.0, 0.0, 8.999999999999999e-08, 0.0, 0.0, 0.0, 8.999999999999999e-08)"
1970/01/01/01:00:16.514000,218,16,514000000,base_link,0.00102294056258,-0.00321945748777,-0.69709247727,-0.716973402545,"(1.0, 0.0, 0.0, 0.0, 1.0, 0.0, 0.0, 0.0, 1.0)",-0.00351612875238,-0.00676587410271,0.00291132228449,"(1.2184696791468346e-07, 0.0, 0.0, 0.0, 1.2184696791468346e-07, 0.0, 0.0, 0.0, 1.2184696791468346e-07)",0.0405179858208,0.0556902401149,9.80466651917,"(8.999999999999999e-08, 0.0, 0.0, 0.0, 8.999999999999999e-08, 0.0, 0.0, 0.0, 8.999999999999999e-08)"
1970/01/01/01:00:16.534000,219,16,534000000,base_link,0.00101803333586,-0.00326943582988,-0.697095728505,-0.71696989843,"(1.0, 0.0, 0.0, 0.0, 1.0, 0.0, 0.0, 0.0, 1.0)",0.00262395758182,0.00338901625946,-0.00024038029369,"(1.2184696791468346e-07, 0.0, 0.0, 0.0, 1.2184696791468346e-07, 0.0, 0.0, 0.0, 1.2184696791468346e-07)",-0.0587848611176,-0.0253546349704,9.89846324921,"(8.999999999999999e-08, 0.0, 0.0, 0.0, 8.999999999999999e-08, 0.0, 0.0, 0.0, 8.999999999999999e-08)"
1970/01/01/01:00:16.554000,220,16,554000000,base_link,0.000971323185499,-0.00333002842775,-0.697099035715,-0.716966422632,"(1.0, 0.0, 0.0, 0.0, 1.0, 0.0, 0.0, 0.0, 1.0)",0.0078295674175,-0.00223159859888,-0.00251577678137,"(1.2184696791468346e-07, 0.0, 0.0, 0.0, 1.2184696791468346e-07, 0.0, 0.0, 0.0, 1.2184696791468346e-07)",0.0373252592981,0.000633723568172,9.71793556213,"(8.999999999999999e-08, 0.0, 0.0, 0.0, 8.999999999999999e-08, 0.0, 0.0, 0.0, 8.999999999999999e-08)"
1970/01/01/01:00:16.576000,221,16,576000000,base_link,0.000988319231434,-0.00333113873379,-0.697101254352,-0.716964372583,"(1.0, 0.0, 0.0, 0.0, 1.0, 0.0, 0.0, 0.0, 1.0)",-0.00549934618175,-0.000554716796614,-0.0043456312269,"(1.2184696791468346e-07, 0.0, 0.0, 0.0, 1.2184696791468346e-07, 0.0, 0.0, 0.0, 1.2184696791468346e-07)",-0.198338642716,-0.118180476129,9.97339057922,"(8.999999999999999e-08, 0.0, 0.0, 0.0, 8.999999999999999e-08, 0.0, 0.0, 0.0, 8.999999999999999e-08)"
1970/01/01/01:00:16.594000,222,16,594000000,base_link,0.00106168841593,-0.00335581299709,-0.697064810499,-0.716999552031,"(1.0, 0.0, 0.0, 0.0, 1.0, 0.0, 0.0, 0.0, 1.0)",-0.00430927518755,0.00924991816282,-0.00869405642152,"(1.2184696791468346e-07, 0.0, 0.0, 0.0, 1.2184696791468346e-07, 0.0, 0.0, 0.0, 1.2184696791468346e-07)",-0.110879011452,0.0266025494784,9.9783449173,"(8.999999999999999e-08, 0.0, 0.0, 0.0, 8.999999999999999e-08, 0.0, 0.0, 0.0, 8.999999999999999e-08)"
1970/01/01/01:00:16.615000,223,16,614000000,base_link,0.00111245874014,-0.00335471569731,-0.697141949768,-0.71692443581,"(1.0, 0.0, 0.0, 0.0, 1.0, 0.0, 0.0, 0.0, 1.0)",-0.0017976469826,0.00206560455263,0.01377298031,"(1.2184696791468346e-07, 0.0, 0.0, 0.0, 1.2184696791468346e-07, 0.0, 0.0, 0.0, 1.2184696791468346e-07)",-0.0590325258672,0.0923573151231,10.0935201645,"(8.999999999999999e-08, 0.0, 0.0, 0.0, 8.999999999999999e-08, 0.0, 0.0, 0.0, 8.999999999999999e-08)"
1970/01/01/01:00:16.634000,224,16,634000000,base_link,0.00115828364204,-0.00335656513724,-0.697135631692,-0.716930501005,"(1.0, 0.0, 0.0, 0.0, 1.0, 0.0, 0.0, 0.0, 1.0)",-0.00615601986647,-0.0053744437173,-0.00392055790871,"(1.2184696791468346e-07, 0.0, 0.0, 0.0, 1.2184696791468346e-07, 0.0, 0.0, 0.0, 1.2184696791468346e-07)",0.00521608348936,-0.023223105818,10.2142114639,"(8.999999999999999e-08, 0.0, 0.0, 0.0, 8.999999999999999e-08, 0.0, 0.0, 0.0, 8.999999999999999e-08)"
1970/01/01/01:00:16.654000,225,16,654000000,base_link,0.00112024709908,-0.00336621478992,-0.697090126925,-0.716974741366,"(1.0, 0.0, 0.0, 0.0, 1.0, 0.0, 0.0, 0.0, 1.0)",0.00722105288878,-0.00885095540434,-0.00768360216171,"(1.2184696791468346e-07, 0.0, 0.0, 0.0, 1.2184696791468346e-07, 0.0, 0.0, 0.0, 1.2184696791468346e-07)",0.00013952088193,-0.000307918759062,10.1789236069,"(8.999999999999999e-08, 0.0, 0.0, 0.0, 8.999999999999999e-08, 0.0, 0.0, 0.0, 8.999999999999999e-08)"
1970/01/01/01:00:16.676000,226,16,676000000,base_link,0.00104172529772,-0.0033307810618,-0.69707439298,-0.716990391018,"(1.0, 0.0, 0.0, 0.0, 1.0, 0.0, 0.0, 0.0, 1.0)",-0.00209712423384,-0.00506435660645,0.00105859083124,"(1.2184696791468346e-07, 0.0, 0.0, 0.0, 1.2184696791468346e-07, 0.0, 0.0, 0.0, 1.2184696791468346e-07)",-0.0979389473796,0.0991507023573,10.1054639816,"(8.999999999999999e-08, 0.0, 0.0, 0.0, 8.999999999999999e-08, 0.0, 0.0, 0.0, 8.999999999999999e-08)"
1970/01/01/01:00:16.694000,227,16,694000000,base_link,0.00103687898636,-0.00333828295388,-0.697119844405,-0.716946119705,"(1.0, 0.0, 0.0, 0.0, 1.0, 0.0, 0.0, 0.0, 1.0)",0.00147430971265,0.000191356957657,0.00587435858324,"(1.2184696791468346e-07, 0.0, 0.0, 0.0, 1.2184696791468346e-07, 0.0, 0.0, 0.0, 1.2184696791468346e-07)",-0.0856126770377,0.0618362277746,10.4516115189,"(8.999999999999999e-08, 0.0, 0.0, 0.0, 8.999999999999999e-08, 0.0, 0.0, 0.0, 8.999999999999999e-08)"
1970/01/01/01:00:16.714000,228,16,714000000,base_link,0.00113139518746,-0.00345106668573,-0.697140022867,-0.716925941243,"(1.0, 0.0, 0.0, 0.0, 1.0, 0.0, 0.0, 0.0, 1.0)",0.00320009840652,0.00855217687786,0.00627673277631,"(1.2184696791468346e-07, 0.0, 0.0, 0.0, 1.2184696791468346e-07, 0.0, 0.0, 0.0, 1.2184696791468346e-07)",0.0162497851998,0.0834763348103,10.1173248291,"(8.999999999999999e-08, 0.0, 0.0, 0.0, 8.999999999999999e-08, 0.0, 0.0, 0.0, 8.999999999999999e-08)"
1970/01/01/01:00:16.734000,229,16,733000000,base_link,0.00119816073459,-0.00344374070735,-0.697107746283,-0.716957206302,"(1.0, 0.0, 0.0, 0.0, 1.0, 0.0, 0.0, 0.0, 1.0)",-0.00751910824329,0.00382013665512,-0.00592335732654,"(1.2184696791468346e-07, 0.0, 0.0, 0.0, 1.2184696791468346e-07, 0.0, 0.0, 0.0, 1.2184696791468346e-07)",0.096912778914,-0.147724181414,10.0651884079,"(8.999999999999999e-08, 0.0, 0.0, 0.0, 8.999999999999999e-08, 0.0, 0.0, 0.0, 8.999999999999999e-08)"
1970/01/01/01:00:16.755000,230,16,753000000,base_link,0.00119138118352,-0.00343602931579,-0.69711911803,-0.71694617173,"(1.0, 0.0, 0.0, 0.0, 1.0, 0.0, 0.0, 0.0, 1.0)",0.000970398308709,-0.00298792659305,-0.00016057601897,"(1.2184696791468346e-07, 0.0, 0.0, 0.0, 1.2184696791468346e-07, 0.0, 0.0, 0.0, 1.2184696791468346e-07)",0.0351936481893,0.0672568753362,10.2465763092,"(8.999999999999999e-08, 0.0, 0.0, 0.0, 8.999999999999999e-08, 0.0, 0.0, 0.0, 8.999999999999999e-08)"
1970/01/01/01:00:16.776000,231,16,775000000,base_link,0.00117181220419,-0.00344513501071,-0.697127555961,-0.716937902387,"(1.0, 0.0, 0.0, 0.0, 1.0, 0.0, 0.0, 0.0, 1.0)",-0.00195485609584,-0.00327978259884,1.81433279067e-05,"(1.2184696791468346e-07, 0.0, 0.0, 0.0, 1.2184696791468346e-07, 0.0, 0.0, 0.0, 1.2184696791468346e-07)",0.103491321206,0.0919831320643,9.98445987701,"(8.999999999999999e-08, 0.0, 0.0, 0.0, 8.999999999999999e-08, 0.0, 0.0, 0.0, 8.999999999999999e-08)"
1970/01/01/01:00:16.794000,232,16,794000000,base_link,0.00112828521103,-0.00352745686083,-0.697153002121,-0.716912961989,"(1.0, 0.0, 0.0, 0.0, 1.0, 0.0, 0.0, 0.0, 1.0)",0.00901512242854,0.00352584384382,0.00569218723103,"(1.2184696791468346e-07, 0.0, 0.0, 0.0, 1.2184696791468346e-07, 0.0, 0.0, 0.0, 1.2184696791468346e-07)",0.00271746097133,0.132673129439,9.86974525452,"(8.999999999999999e-08, 0.0, 0.0, 0.0, 8.999999999999999e-08, 0.0, 0.0, 0.0, 8.999999999999999e-08)"
1970/01/01/01:00:16.815000,233,16,814000000,base_link,0.00111672067556,-0.00359359135769,-0.697179490098,-0.716886811187,"(1.0, 0.0, 0.0, 0.0, 1.0, 0.0, 0.0, 0.0, 1.0)",0.00778966490179,0.00257110106759,-0.000744384131394,"(1.2184696791468346e-07, 0.0, 0.0, 0.0, 1.2184696791468346e-07, 0.0, 0.0, 0.0, 1.2184696791468346e-07)",-0.234325647354,-0.101659163833,9.67454719543,"(8.999999999999999e-08, 0.0, 0.0, 0.0, 8.999999999999999e-08, 0.0, 0.0, 0.0, 8.999999999999999e-08)"
1970/01/01/01:00:16.834000,234,16,834000000,base_link,0.00111575837739,-0.00360368997308,-0.697138053819,-0.71692698306,"(1.0, 0.0, 0.0, 0.0, 1.0, 0.0, 0.0, 0.0, 1.0)",-0.000491623999551,-0.000884031353053,-0.00564091466367,"(1.2184696791468346e-07, 0.0, 0.0, 0.0, 1.2184696791468346e-07, 0.0, 0.0, 0.0, 1.2184696791468346e-07)",0.0209612268955,0.0275526624173,9.52076244354,"(8.999999999999999e-08, 0.0, 0.0, 0.0, 8.999999999999999e-08, 0.0, 0.0, 0.0, 8.999999999999999e-08)"
1970/01/01/01:00:16.855000,235,16,852000000,base_link,0.00106050739867,-0.0036734226748,-0.697181801589,-0.716884246814,"(1.0, 0.0, 0.0, 0.0, 1.0, 0.0, 0.0, 0.0, 1.0)",0.00877021159977,0.000398463394959,0.00454705115408,"(1.2184696791468346e-07, 0.0, 0.0, 0.0, 1.2184696791468346e-07, 0.0, 0.0, 0.0, 1.2184696791468346e-07)",-0.0395821295679,0.0191563833505,9.57087230682,"(8.999999999999999e-08, 0.0, 0.0, 0.0, 8.999999999999999e-08, 0.0, 0.0, 0.0, 8.999999999999999e-08)"
1970/01/01/01:00:16.877000,236,16,874000000,base_link,0.00104326415159,-0.00372353157337,-0.697229456504,-0.716837687718,"(1.0, 0.0, 0.0, 0.0, 1.0, 0.0, 0.0, 0.0, 1.0)",0.0048513119109,-0.00143568706699,0.00759193301201,"(1.2184696791468346e-07, 0.0, 0.0, 0.0, 1.2184696791468346e-07, 0.0, 0.0, 0.0, 1.2184696791468346e-07)",-0.0638047754765,0.240832716227,9.40433979034,"(8.999999999999999e-08, 0.0, 0.0, 0.0, 8.999999999999999e-08, 0.0, 0.0, 0.0, 8.999999999999999e-08)"
1970/01/01/01:00:16.894000,237,16,894000000,base_link,0.00105236540133,-0.00366409348635,-0.697171047557,-0.716894663671,"(1.0, 0.0, 0.0, 0.0, 1.0, 0.0, 0.0, 0.0, 1.0)",-0.00330889504403,-0.00633523100987,-0.0101371994242,"(1.2184696791468346e-07, 0.0, 0.0, 0.0, 1.2184696791468346e-07, 0.0, 0.0, 0.0, 1.2184696791468346e-07)",0.0227558799088,0.0446689166129,9.41546821594,"(8.999999999999999e-08, 0.0, 0.0, 0.0, 8.999999999999999e-08, 0.0, 0.0, 0.0, 8.999999999999999e-08)"
1970/01/01/01:00:16.914000,238,16,914000000,base_link,0.00106873829952,-0.00370713480294,-0.697152716312,-0.716912320567,"(1.0, 0.0, 0.0, 0.0, 1.0, 0.0, 0.0, 0.0, 1.0)",0.00223229150288,0.00568414572626,-0.00046736781951,"(1.2184696791468346e-07, 0.0, 0.0, 0.0, 1.2184696791468346e-07, 0.0, 0.0, 0.0, 1.2184696791468346e-07)",-0.0174452457577,0.00107918237336,9.29964923859,"(8.999999999999999e-08, 0.0, 0.0, 0.0, 8.999999999999999e-08, 0.0, 0.0, 0.0, 8.999999999999999e-08)"
1970/01/01/01:00:16.935000,239,16,934000000,base_link,0.00105153703466,-0.00376092611776,-0.697144221088,-0.716920310029,"(1.0, 0.0, 0.0, 0.0, 1.0, 0.0, 0.0, 0.0, 1.0)",0.00373259396292,0.000499750196468,-0.00321259070188,"(1.2184696791468346e-07, 0.0, 0.0, 0.0, 1.2184696791468346e-07, 0.0, 0.0, 0.0, 1.2184696791468346e-07)",-0.0765676051378,0.0557434521616,9.45630645752,"(8.999999999999999e-08, 0.0, 0.0, 0.0, 8.999999999999999e-08, 0.0, 0.0, 0.0, 8.999999999999999e-08)"
1970/01/01/01:00:16.954000,240,16,954000000,base_link,0.00103366010313,-0.00377089821029,-0.697090657053,-0.71697244107,"(1.0, 0.0, 0.0, 0.0, 1.0, 0.0, 0.0, 0.0, 1.0)",-0.0096869468689,0.001953096129,-0.0095354244113,"(1.2184696791468346e-07, 0.0, 0.0, 0.0, 1.2184696791468346e-07, 0.0, 0.0, 0.0, 1.2184696791468346e-07)",0.0798927769065,-0.0836428627372,9.48601436615,"(8.999999999999999e-08, 0.0, 0.0, 0.0, 8.999999999999999e-08, 0.0, 0.0, 0.0, 8.999999999999999e-08)"
1970/01/01/01:00:16.977000,241,16,977000000,base_link,0.00107035971842,-0.00372597271554,-0.697140317236,-0.716924298174,"(1.0, 0.0, 0.0, 0.0, 1.0, 0.0, 0.0, 0.0, 1.0)",3.24905267917e-05,-0.000759551709052,0.0100665641949,"(1.2184696791468346e-07, 0.0, 0.0, 0.0, 1.2184696791468346e-07, 0.0, 0.0, 0.0, 1.2184696791468346e-07)",-0.0964053347707,-0.0746937170625,9.36075592041,"(8.999999999999999e-08, 0.0, 0.0, 0.0, 8.999999999999999e-08, 0.0, 0.0, 0.0, 8.999999999999999e-08)"
1970/01/01/01:00:16.994000,242,16,994000000,base_link,0.00108403233718,-0.0037635872138,-0.697171158193,-0.716894131567,"(1.0, 0.0, 0.0, 0.0, 1.0, 0.0, 0.0, 0.0, 1.0)",0.00451039522886,-0.00269459420815,0.00304190791212,"(1.2184696791468346e-07, 0.0, 0.0, 0.0, 1.2184696791468346e-07, 0.0, 0.0, 0.0, 1.2184696791468346e-07)",-0.0230439826846,0.0902000144124,9.38055992126,"(8.999999999999999e-08, 0.0, 0.0, 0.0, 8.999999999999999e-08, 0.0, 0.0, 0.0, 8.999999999999999e-08)"
1970/01/01/01:00:17.015000,243,17,14000000,base_link,0.00113087839466,-0.0037374984792,-0.697165150291,-0.716900055175,"(1.0, 0.0, 0.0, 0.0, 1.0, 0.0, 0.0, 0.0, 1.0)",-0.0093737654388,-0.00146980409045,0.001103841234,"(1.2184696791468346e-07, 0.0, 0.0, 0.0, 1.2184696791468346e-07, 0.0, 0.0, 0.0, 1.2184696791468346e-07)",0.0880415514112,0.118833497167,9.53141212463,"(8.999999999999999e-08, 0.0, 0.0, 0.0, 8.999999999999999e-08, 0.0, 0.0, 0.0, 8.999999999999999e-08)"
1970/01/01/01:00:17.035000,244,17,34000000,base_link,0.00117724173902,-0.00378403963058,-0.69723321811,-0.716833504643,"(1.0, 0.0, 0.0, 0.0, 1.0, 0.0, 0.0, 0.0, 1.0)",-0.000959449331276,0.0076733357273,0.0129288304597,"(1.2184696791468346e-07, 0.0, 0.0, 0.0, 1.2184696791468346e-07, 0.0, 0.0, 0.0, 1.2184696791468346e-07)",0.0715738758445,0.0658532232046,9.38872528076,"(8.999999999999999e-08, 0.0, 0.0, 0.0, 8.999999999999999e-08, 0.0, 0.0, 0.0, 8.999999999999999e-08)"
1970/01/01/01:00:17.055000,245,17,55000000,base_link,0.00119832248958,-0.0038838959691,-0.697235091669,-0.716831041028,"(1.0, 0.0, 0.0, 0.0, 1.0, 0.0, 0.0, 0.0, 1.0)",0.00837861932814,0.0119745898992,-0.00404075579718,"(1.2184696791468346e-07, 0.0, 0.0, 0.0, 1.2184696791468346e-07, 0.0, 0.0, 0.0, 1.2184696791468346e-07)",0.0733575224876,-0.0741521343589,9.43877029419,"(8.999999999999999e-08, 0.0, 0.0, 0.0, 8.999999999999999e-08, 0.0, 0.0, 0.0, 8.999999999999999e-08)"
1970/01/01/01:00:17.075000,246,17,75000000,base_link,0.00127103699852,-0.00395220185183,-0.697224516103,-0.716840942245,"(1.0, 0.0, 0.0, 0.0, 1.0, 0.0, 0.0, 0.0, 1.0)",-0.00386598776095,0.00789469666779,-0.000392071902752,"(1.2184696791468346e-07, 0.0, 0.0, 0.0, 1.2184696791468346e-07, 0.0, 0.0, 0.0, 1.2184696791468346e-07)",-0.0754456594586,-0.000275087833869,9.41223907471,"(8.999999999999999e-08, 0.0, 0.0, 0.0, 8.999999999999999e-08, 0.0, 0.0, 0.0, 8.999999999999999e-08)"
1970/01/01/01:00:17.094000,247,17,94000000,base_link,0.00131825258179,-0.00387521347135,-0.697255285278,-0.716811353181,"(1.0, 0.0, 0.0, 0.0, 1.0, 0.0, 0.0, 0.0, 1.0)",-0.00765959126875,-0.00350259942934,0.00371290696785,"(1.2184696791468346e-07, 0.0, 0.0, 0.0, 1.2184696791468346e-07, 0.0, 0.0, 0.0, 1.2184696791468346e-07)",-0.132302075624,-0.088753849268,9.51084899902,"(8.999999999999999e-08, 0.0, 0.0, 0.0, 8.999999999999999e-08, 0.0, 0.0, 0.0, 8.999999999999999e-08)"
1970/01/01/01:00:17.113000,248,17,113000000,base_link,0.00131358753482,-0.00393244913858,-0.697235592822,-0.716830118407,"(1.0, 0.0, 0.0, 0.0, 1.0, 0.0, 0.0, 0.0, 1.0)",0.00439859833568,0.0039566908963,-0.000204773648875,"(1.2184696791468346e-07, 0.0, 0.0, 0.0, 1.2184696791468346e-07, 0.0, 0.0, 0.0, 1.2184696791468346e-07)",-0.109588488936,-0.0203356128186,9.5812664032,"(8.999999999999999e-08, 0.0, 0.0, 0.0, 8.999999999999999e-08, 0.0, 0.0, 0.0, 8.999999999999999e-08)"
1970/01/01/01:00:17.134000,249,17,134000000,base_link,0.0013199569773,-0.00390317584738,-0.697147191782,-0.716916243516,"(1.0, 0.0, 0.0, 0.0, 1.0, 0.0, 0.0, 0.0, 1.0)",0.00350826606154,-0.00266213947907,-0.0148996701464,"(1.2184696791468346e-07, 0.0, 0.0, 0.0, 1.2184696791468346e-07, 0.0, 0.0, 0.0, 1.2184696791468346e-07)",-0.00616374611855,-0.0169649366289,9.50256443024,"(8.999999999999999e-08, 0.0, 0.0, 0.0, 8.999999999999999e-08, 0.0, 0.0, 0.0, 8.999999999999999e-08)"
1970/01/01/01:00:17.154000,250,17,153000000,base_link,0.00130499369362,-0.00392987999182,-0.697089226036,-0.716972523389,"(1.0, 0.0, 0.0, 0.0, 1.0, 0.0, 0.0, 0.0, 1.0)",0.00448967097327,-2.43252143264e-05,-0.00943455472589,"(1.2184696791468346e-07, 0.0, 0.0, 0.0, 1.2184696791468346e-07, 0.0, 0.0, 0.0, 1.2184696791468346e-07)",-0.0125354425982,0.0771360322833,9.66230297089,"(8.999999999999999e-08, 0.0, 0.0, 0.0, 8.999999999999999e-08, 0.0, 0.0, 0.0, 8.999999999999999e-08)"
1970/01/01/01:00:17.176000,251,17,173000000,base_link,0.00120237937071,-0.00387599121241,-0.697085656725,-0.716976514168,"(1.0, 0.0, 0.0, 0.0, 1.0, 0.0, 0.0, 0.0, 1.0)",0.00175179867074,-0.0114099327475,0.00128863705322,"(1.2184696791468346e-07, 0.0, 0.0, 0.0, 1.2184696791468346e-07, 0.0, 0.0, 0.0, 1.2184696791468346e-07)",-0.148344025016,0.163572177291,9.78983688354,"(8.999999999999999e-08, 0.0, 0.0, 0.0, 8.999999999999999e-08, 0.0, 0.0, 0.0, 8.999999999999999e-08)"
