time,.header.seq,.header.stamp.secs,.header.stamp.nsecs,.header.frame_id,.orientation.x,.orientation.y,.orientation.z,.orientation.w,.orientation_covariance,.angular_velocity.x,.angular_velocity.y,.angular_velocity.z,.angular_velocity_covariance,.linear_acceleration.x,.linear_acceleration.y,.linear_acceleration.z,.linear_acceleration_covariance
1970/01/01/01:00:10.716000,0,10,715000000,base_link,0.000593779479156,-0.000225456182116,-0.674672864374,-0.738116605065,"(1.0, 0.0, 0.0, 0.0, 1.0, 0.0, 0.0, 0.0, 1.0)",-0.00201784004457,0.00584331527352,-0.00454004155472,"(1.2184696791468346e-07, 0.0, 0.0, 0.0, 1.2184696791468346e-07, 0.0, 0.0, 0.0, 1.2184696791468346e-07)",0.0,0.0,0.0,"(-1.0, 0.0, 0.0, 0.0, 8.999999999999999e-08, 0.0, 0.0, 0.0, 8.999999999999999e-08)"
1970/01/01/01:00:10.717000,1,10,717000000,base_link,0.000593779495596,-0.000225456210825,-0.674672839868,-0.738116580494,"(1.0, 0.0, 0.0, 0.0, 1.0, 0.0, 0.0, 0.0, 1.0)",-0.00201784004457,0.00584331527352,-0.00454004155472,"(1.2184696791468346e-07, 0.0, 0.0, 0.0, 1.2184696791468346e-07, 0.0, 0.0, 0.0, 1.2184696791468346e-07)",0.0,0.0,0.0,"(-1.0, 0.0, 0.0, 0.0, 8.999999999999999e-08, 0.0, 0.0, 0.0, 8.999999999999999e-08)"
1970/01/01/01:00:10.733000,2,10,732000000,base_link,0.000557388593618,-0.000206417750838,-0.674691157942,-0.738099948294,"(1.0, 0.0, 0.0, 0.0, 1.0, 0.0, 0.0, 0.0, 1.0)",0.00188399013132,-0.00586835294962,-0.001438686857,"(1.2184696791468346e-07, 0.0, 0.0, 0.0, 1.2184696791468346e-07, 0.0, 0.0, 0.0, 1.2184696791468346e-07)",0.0,0.0,0.0,"(-1.0, 0.0, 0.0, 0.0, 8.999999999999999e-08, 0.0, 0.0, 0.0, 8.999999999999999e-08)"
1970/01/01/01:00:10.753000,3,10,753000000,base_link,0.00050176724535,-0.000223872246648,-0.674871841482,-0.737934859088,"(1.0, 0.0, 0.0, 0.0, 1.0, 0.0, 0.0, 0.0, 1.0)",0.00515570584685,-0.00382797745988,0.0285872928798,"(1.2184696791468346e-07, 0.0, 0.0, 0.0, 1.2184696791468346e-07, 0.0, 0.0, 0.0, 1.2184696791468346e-07)",0.0,0.0,0.0,"(-1.0, 0.0, 0.0, 0.0, 8.999999999999999e-08, 0.0, 0.0, 0.0, 8.999999999999999e-08)"
1970/01/01/01:00:10.774000,4,10,774000000,base_link,0.000531991701191,-0.000190929566032,-0.675505529886,-0.737354781475,"(1.0, 0.0, 0.0, 0.0, 1.0, 0.0, 0.0, 0.0, 1.0)",-0.00749456137419,0.0028809721116,0.107556685805,"(1.2184696791468346e-07, 0.0, 0.0, 0.0, 1.2184696791468346e-07, 0.0, 0.0, 0.0, 1.2184696791468346e-07)",0.0,0.0,0.0,"(-1.0, 0.0, 0.0, 0.0, 8.999999999999999e-08, 0.0, 0.0, 0.0, 8.999999999999999e-08)"
1970/01/01/01:00:10.793000,5,10,793000000,base_link,0.000499608968623,-0.000189986859569,-0.676822821734,-0.736145807028,"(1.0, 0.0, 0.0, 0.0, 1.0, 0.0, 0.0, 0.0, 1.0)",0.00198158109561,-0.00369050586596,0.154616251588,"(1.2184696791468346e-07, 0.0, 0.0, 0.0, 1.2184696791468346e-07, 0.0, 0.0, 0.0, 1.2184696791468346e-07)",0.0,0.0,0.0,"(-1.0, 0.0, 0.0, 0.0, 8.999999999999999e-08, 0.0, 0.0, 0.0, 8.999999999999999e-08)"
1970/01/01/01:00:10.815000,6,10,813000000,base_link,0.000425365802956,-0.000246661580647,-0.677981778408,-0.735078561896,"(1.0, 0.0, 0.0, 0.0, 1.0, 0.0, 0.0, 0.0, 1.0)",0.0113375168294,-0.00300118792802,0.155987903476,"(1.2184696791468346e-07, 0.0, 0.0, 0.0, 1.2184696791468346e-07, 0.0, 0.0, 0.0, 1.2184696791468346e-07)",0.0,0.0,0.0,"(-1.0, 0.0, 0.0, 0.0, 8.999999999999999e-08, 0.0, 0.0, 0.0, 8.999999999999999e-08)"
1970/01/01/01:00:10.833000,7,10,833000000,base_link,0.000427228043348,-0.000247035757405,-0.678907123004,-0.734224024006,"(1.0, 0.0, 0.0, 0.0, 1.0, 0.0, 0.0, 0.0, 1.0)",0.000733325141482,-0.000101919227745,0.149952292442,"(1.2184696791468346e-07, 0.0, 0.0, 0.0, 1.2184696791468346e-07, 0.0, 0.0, 0.0, 1.2184696791468346e-07)",0.0,0.0,0.0,"(-1.0, 0.0, 0.0, 0.0, 8.999999999999999e-08, 0.0, 0.0, 0.0, 8.999999999999999e-08)"
1970/01/01/01:00:10.853000,8,10,853000000,base_link,0.000488793578981,-0.000257453499351,-0.679970756678,-0.733239120645,"(1.0, 0.0, 0.0, 0.0, 1.0, 0.0, 0.0, 0.0, 1.0)",-0.00743096740916,0.00655791163445,0.144896104932,"(1.2184696791468346e-07, 0.0, 0.0, 0.0, 1.2184696791468346e-07, 0.0, 0.0, 0.0, 1.2184696791468346e-07)",0.0,0.0,0.0,"(-1.0, 0.0, 0.0, 0.0, 8.999999999999999e-08, 0.0, 0.0, 0.0, 8.999999999999999e-08)"
1970/01/01/01:00:10.877000,9,10,876000000,base_link,0.000485449294464,-0.000272613801021,-0.680942786811,-0.732336464224,"(1.0, 0.0, 0.0, 0.0, 1.0, 0.0, 0.0, 0.0, 1.0)",-0.00117527111433,-0.00425107963383,0.125779539347,"(1.2184696791468346e-07, 0.0, 0.0, 0.0, 1.2184696791468346e-07, 0.0, 0.0, 0.0, 1.2184696791468346e-07)",0.0,0.0,0.0,"(-1.0, 0.0, 0.0, 0.0, 8.999999999999999e-08, 0.0, 0.0, 0.0, 8.999999999999999e-08)"
1970/01/01/01:00:10.893000,10,10,893000000,base_link,0.000499897143584,-0.000175942019109,-0.682080828112,-0.731276563181,"(1.0, 0.0, 0.0, 0.0, 1.0, 0.0, 0.0, 0.0, 1.0)",-0.0040915524587,-0.00565634388477,0.129346415401,"(1.2184696791468346e-07, 0.0, 0.0, 0.0, 1.2184696791468346e-07, 0.0, 0.0, 0.0, 1.2184696791468346e-07)",0.0,0.0,0.0,"(-1.0, 0.0, 0.0, 0.0, 8.999999999999999e-08, 0.0, 0.0, 0.0, 8.999999999999999e-08)"
1970/01/01/01:00:10.913000,11,10,913000000,base_link,0.000598337796624,-0.000197156968695,-0.682721752603,-0.730678207006,"(1.0, 0.0, 0.0, 0.0, 1.0, 0.0, 0.0, 0.0, 1.0)",-0.0103474110365,0.00706356717274,0.107586957514,"(1.2184696791468346e-07, 0.0, 0.0, 0.0, 1.2184696791468346e-07, 0.0, 0.0, 0.0, 1.2184696791468346e-07)",0.0,0.0,0.0,"(-1.0, 0.0, 0.0, 0.0, 8.999999999999999e-08, 0.0, 0.0, 0.0, 8.999999999999999e-08)"
1970/01/01/01:00:10.933000,12,10,933000000,base_link,0.00057724772354,-0.000235533505841,-0.683526983949,-0.729924984872,"(1.0, 0.0, 0.0, 0.0, 1.0, 0.0, 0.0, 0.0, 1.0)",0.00832395628095,0.00573509465903,0.105304576457,"(1.2184696791468346e-07, 0.0, 0.0, 0.0, 1.2184696791468346e-07, 0.0, 0.0, 0.0, 1.2184696791468346e-07)",0.0,0.0,0.0,"(-1.0, 0.0, 0.0, 0.0, 8.999999999999999e-08, 0.0, 0.0, 0.0, 8.999999999999999e-08)"
1970/01/01/01:00:10.953000,13,10,953000000,base_link,0.0006554176975,-0.000283158209887,-0.684234255482,-0.729262051823,"(1.0, 0.0, 0.0, 0.0, 1.0, 0.0, 0.0, 0.0, 1.0)",8.11341451481e-05,-0.000288870884106,0.0974801108241,"(1.2184696791468346e-07, 0.0, 0.0, 0.0, 1.2184696791468346e-07, 0.0, 0.0, 0.0, 1.2184696791468346e-07)",0.0,0.0,0.0,"(-1.0, 0.0, 0.0, 0.0, 8.999999999999999e-08, 0.0, 0.0, 0.0, 8.999999999999999e-08)"
1970/01/01/01:00:10.975000,14,10,975000000,base_link,0.0006388733102,-0.000222923139955,-0.684919226064,-0.728618806621,"(1.0, 0.0, 0.0, 0.0, 1.0, 0.0, 0.0, 0.0, 1.0)",-0.00168289570138,-0.00606703897938,0.0993738174438,"(1.2184696791468346e-07, 0.0, 0.0, 0.0, 1.2184696791468346e-07, 0.0, 0.0, 0.0, 1.2184696791468346e-07)",0.0,0.0,0.0,"(-1.0, 0.0, 0.0, 0.0, 8.999999999999999e-08, 0.0, 0.0, 0.0, 8.999999999999999e-08)"
1970/01/01/01:00:10.993000,15,10,992000000,base_link,0.000646579124704,-0.00022525411998,-0.685581617789,-0.727995527171,"(1.0, 0.0, 0.0, 0.0, 1.0, 0.0, 0.0, 0.0, 1.0)",-0.000604661356192,-0.000163214688655,0.0919022113085,"(1.2184696791468346e-07, 0.0, 0.0, 0.0, 1.2184696791468346e-07, 0.0, 0.0, 0.0, 1.2184696791468346e-07)",0.0,0.0,0.0,"(-1.0, 0.0, 0.0, 0.0, 8.999999999999999e-08, 0.0, 0.0, 0.0, 8.999999999999999e-08)"
1970/01/01/01:00:11.013000,16,11,13000000,base_link,0.000706019269677,-0.000208135502449,-0.686174814926,-0.727436384689,"(1.0, 0.0, 0.0, 0.0, 1.0, 0.0, 0.0, 0.0, 1.0)",-0.00480047799647,0.00737397419289,0.0862858071923,"(1.2184696791468346e-07, 0.0, 0.0, 0.0, 1.2184696791468346e-07, 0.0, 0.0, 0.0, 1.2184696791468346e-07)",0.0,0.0,0.0,"(-1.0, 0.0, 0.0, 0.0, 8.999999999999999e-08, 0.0, 0.0, 0.0, 8.999999999999999e-08)"
1970/01/01/01:00:11.033000,17,11,33000000,base_link,0.000720616443763,-0.000147472069894,-0.686821372606,-0.72682590471,"(1.0, 0.0, 0.0, 0.0, 1.0, 0.0, 0.0, 0.0, 1.0)",-0.00193937122822,-0.00668234098703,0.0769030153751,"(1.2184696791468346e-07, 0.0, 0.0, 0.0, 1.2184696791468346e-07, 0.0, 0.0, 0.0, 1.2184696791468346e-07)",0.0,0.0,0.0,"(-1.0, 0.0, 0.0, 0.0, 8.999999999999999e-08, 0.0, 0.0, 0.0, 8.999999999999999e-08)"
1970/01/01/01:00:11.054000,18,11,53000000,base_link,0.000786272178756,-0.000108942277093,-0.687284927354,-0.726387638072,"(1.0, 0.0, 0.0, 0.0, 1.0, 0.0, 0.0, 0.0, 1.0)",-0.00604036450386,0.00130400853232,0.0819497331977,"(1.2184696791468346e-07, 0.0, 0.0, 0.0, 1.2184696791468346e-07, 0.0, 0.0, 0.0, 1.2184696791468346e-07)",0.0,0.0,0.0,"(-1.0, 0.0, 0.0, 0.0, 8.999999999999999e-08, 0.0, 0.0, 0.0, 8.999999999999999e-08)"
1970/01/01/01:00:11.073000,19,11,73000000,base_link,0.000829466689261,-8.72312171176e-05,-0.687736441274,-0.725960063562,"(1.0, 0.0, 0.0, 0.0, 1.0, 0.0, 0.0, 0.0, 1.0)",-0.00780223822221,-0.000500114110764,0.0663348510861,"(1.2184696791468346e-07, 0.0, 0.0, 0.0, 1.2184696791468346e-07, 0.0, 0.0, 0.0, 1.2184696791468346e-07)",0.0,0.0,0.0,"(-1.0, 0.0, 0.0, 0.0, 8.999999999999999e-08, 0.0, 0.0, 0.0, 8.999999999999999e-08)"
1970/01/01/01:00:11.093000,20,11,93000000,base_link,0.000781119438413,-4.00744501032e-05,-0.688290358864,-0.725434974416,"(1.0, 0.0, 0.0, 0.0, 1.0, 0.0, 0.0, 0.0, 1.0)",0.00249864207581,-0.00670875236392,0.0672556683421,"(1.2184696791468346e-07, 0.0, 0.0, 0.0, 1.2184696791468346e-07, 0.0, 0.0, 0.0, 1.2184696791468346e-07)",0.0,0.0,0.0,"(-1.0, 0.0, 0.0, 0.0, 8.999999999999999e-08, 0.0, 0.0, 0.0, 8.999999999999999e-08)"
1970/01/01/01:00:11.113000,21,11,113000000,base_link,0.000805153267186,-3.60561761516e-05,-0.688580828359,-0.725159256318,"(1.0, 0.0, 0.0, 0.0, 1.0, 0.0, 0.0, 0.0, 1.0)",-0.00381507351995,0.00313499150798,0.0515185594559,"(1.2184696791468346e-07, 0.0, 0.0, 0.0, 1.2184696791468346e-07, 0.0, 0.0, 0.0, 1.2184696791468346e-07)",0.0,0.0,0.0,"(-1.0, 0.0, 0.0, 0.0, 8.999999999999999e-08, 0.0, 0.0, 0.0, 8.999999999999999e-08)"
1970/01/01/01:00:11.133000,22,11,133000000,base_link,0.00082949776433,-1.13821597988e-05,-0.688964248777,-0.724794886276,"(1.0, 0.0, 0.0, 0.0, 1.0, 0.0, 0.0, 0.0, 1.0)",-0.00187603686936,-0.00691268220544,0.0542131401598,"(1.2184696791468346e-07, 0.0, 0.0, 0.0, 1.2184696791468346e-07, 0.0, 0.0, 0.0, 1.2184696791468346e-07)",0.0,0.0,0.0,"(-1.0, 0.0, 0.0, 0.0, 8.999999999999999e-08, 0.0, 0.0, 0.0, 8.999999999999999e-08)"
1970/01/01/01:00:11.153000,23,11,153000000,base_link,0.000894286566638,-8.11098812798e-05,-0.689346100541,-0.724431663418,"(1.0, 0.0, 0.0, 0.0, 1.0, 0.0, 0.0, 0.0, 1.0)",0.000291098986054,0.0177497249097,0.0609785243869,"(1.2184696791468346e-07, 0.0, 0.0, 0.0, 1.2184696791468346e-07, 0.0, 0.0, 0.0, 1.2184696791468346e-07)",0.0,0.0,0.0,"(-1.0, 0.0, 0.0, 0.0, 8.999999999999999e-08, 0.0, 0.0, 0.0, 8.999999999999999e-08)"
1970/01/01/01:00:11.175000,24,11,174000000,base_link,0.000949655836416,-7.6540405575e-05,-0.689715247665,-0.724080217971,"(1.0, 0.0, 0.0, 0.0, 1.0, 0.0, 0.0, 0.0, 1.0)",-0.00573001755401,-0.00284402398393,0.0452802814543,"(1.2184696791468346e-07, 0.0, 0.0, 0.0, 1.2184696791468346e-07, 0.0, 0.0, 0.0, 1.2184696791468346e-07)",0.0,0.0,0.0,"(-1.0, 0.0, 0.0, 0.0, 8.999999999999999e-08, 0.0, 0.0, 0.0, 8.999999999999999e-08)"
1970/01/01/01:00:11.193000,25,11,193000000,base_link,0.000973689459394,-5.57289585567e-05,-0.690001103397,-0.723807764937,"(1.0, 0.0, 0.0, 0.0, 1.0, 0.0, 0.0, 0.0, 1.0)",-0.00372060295194,-0.00130882184021,0.0417169965804,"(1.2184696791468346e-07, 0.0, 0.0, 0.0, 1.2184696791468346e-07, 0.0, 0.0, 0.0, 1.2184696791468346e-07)",0.0,0.0,0.0,"(-1.0, 0.0, 0.0, 0.0, 8.999999999999999e-08, 0.0, 0.0, 0.0, 8.999999999999999e-08)"
1970/01/01/01:00:11.213000,26,11,213000000,base_link,0.000918174857074,-4.90683159258e-05,-0.690320414507,-0.723503289518,"(1.0, 0.0, 0.0, 0.0, 1.0, 0.0, 0.0, 0.0, 1.0)",0.00444633699954,-0.00269802473485,0.0474288612604,"(1.2184696791468346e-07, 0.0, 0.0, 0.0, 1.2184696791468346e-07, 0.0, 0.0, 0.0, 1.2184696791468346e-07)",0.0,0.0,0.0,"(-1.0, 0.0, 0.0, 0.0, 8.999999999999999e-08, 0.0, 0.0, 0.0, 8.999999999999999e-08)"
1970/01/01/01:00:11.233000,27,11,233000000,base_link,0.000897858018141,3.14122437586e-05,-0.690567122401,-0.723267876978,"(1.0, 0.0, 0.0, 0.0, 1.0, 0.0, 0.0, 0.0, 1.0)",-0.0066465488635,-0.00570200476795,0.0375735722482,"(1.2184696791468346e-07, 0.0, 0.0, 0.0, 1.2184696791468346e-07, 0.0, 0.0, 0.0, 1.2184696791468346e-07)",0.0,0.0,0.0,"(-1.0, 0.0, 0.0, 0.0, 8.999999999999999e-08, 0.0, 0.0, 0.0, 8.999999999999999e-08)"
1970/01/01/01:00:11.253000,28,11,253000000,base_link,0.00089956644723,3.39150421698e-07,-0.69084487145,-0.723002434809,"(1.0, 0.0, 0.0, 0.0, 1.0, 0.0, 0.0, 0.0, 1.0)",0.00408532237634,0.00368338450789,0.0364335998893,"(1.2184696791468346e-07, 0.0, 0.0, 0.0, 1.2184696791468346e-07, 0.0, 0.0, 0.0, 1.2184696791468346e-07)",0.0,0.0,0.0,"(-1.0, 0.0, 0.0, 0.0, 8.999999999999999e-08, 0.0, 0.0, 0.0, 8.999999999999999e-08)"
1970/01/01/01:00:11.274000,29,11,273000000,base_link,0.000899012528981,2.96212496511e-05,-0.691021838165,-0.722833475996,"(1.0, 0.0, 0.0, 0.0, 1.0, 0.0, 0.0, 0.0, 1.0)",-0.000887662288733,-0.00100245513022,0.0246935635805,"(1.2184696791468346e-07, 0.0, 0.0, 0.0, 1.2184696791468346e-07, 0.0, 0.0, 0.0, 1.2184696791468346e-07)",0.0,0.0,0.0,"(-1.0, 0.0, 0.0, 0.0, 8.999999999999999e-08, 0.0, 0.0, 0.0, 8.999999999999999e-08)"
1970/01/01/01:00:11.293000,30,11,293000000,base_link,0.00091015407308,1.69678108394e-06,-0.691222334674,-0.722641577444,"(1.0, 0.0, 0.0, 0.0, 1.0, 0.0, 0.0, 0.0, 1.0)",0.000966199324466,0.00478629954159,0.0243065319955,"(1.2184696791468346e-07, 0.0, 0.0, 0.0, 1.2184696791468346e-07, 0.0, 0.0, 0.0, 1.2184696791468346e-07)",0.0,0.0,0.0,"(-1.0, 0.0, 0.0, 0.0, 8.999999999999999e-08, 0.0, 0.0, 0.0, 8.999999999999999e-08)"
1970/01/01/01:00:11.313000,31,11,313000000,base_link,0.000913651932235,1.68185270304e-05,-0.69139730073,-0.72247419782,"(1.0, 0.0, 0.0, 0.0, 1.0, 0.0, 0.0, 0.0, 1.0)",-0.000226179836318,-0.00260735698976,0.0317457690835,"(1.2184696791468346e-07, 0.0, 0.0, 0.0, 1.2184696791468346e-07, 0.0, 0.0, 0.0, 1.2184696791468346e-07)",0.0,0.0,0.0,"(-1.0, 0.0, 0.0, 0.0, 8.999999999999999e-08, 0.0, 0.0, 0.0, 8.999999999999999e-08)"
1970/01/01/01:00:11.333000,32,11,333000000,base_link,0.000931249023509,-2.77354251335e-06,-0.691618173924,-0.722262765521,"(1.0, 0.0, 0.0, 0.0, 1.0, 0.0, 0.0, 0.0, 1.0)",-0.00971061363816,-0.000647534267046,0.0356611832976,"(1.2184696791468346e-07, 0.0, 0.0, 0.0, 1.2184696791468346e-07, 0.0, 0.0, 0.0, 1.2184696791468346e-07)",0.0,0.0,0.0,"(-1.0, 0.0, 0.0, 0.0, 8.999999999999999e-08, 0.0, 0.0, 0.0, 8.999999999999999e-08)"
1970/01/01/01:00:11.352000,33,11,353000000,base_link,0.000936082205131,6.32012984528e-05,-0.691804005965,-0.722084772794,"(1.0, 0.0, 0.0, 0.0, 1.0, 0.0, 0.0, 0.0, 1.0)",0.000578788400162,-0.00683772284538,0.0256616976112,"(1.2184696791468346e-07, 0.0, 0.0, 0.0, 1.2184696791468346e-07, 0.0, 0.0, 0.0, 1.2184696791468346e-07)",0.0,0.0,0.0,"(-1.0, 0.0, 0.0, 0.0, 8.999999999999999e-08, 0.0, 0.0, 0.0, 8.999999999999999e-08)"
1970/01/01/01:00:11.376000,34,11,375000000,base_link,0.00100716677525,7.38327998306e-05,-0.692003734611,-0.721893304929,"(1.0, 0.0, 0.0, 0.0, 1.0, 0.0, 0.0, 0.0, 1.0)",-0.00594231812283,0.00715968851,0.0328240729868,"(1.2184696791468346e-07, 0.0, 0.0, 0.0, 1.2184696791468346e-07, 0.0, 0.0, 0.0, 1.2184696791468346e-07)",0.0,0.0,0.0,"(-1.0, 0.0, 0.0, 0.0, 8.999999999999999e-08, 0.0, 0.0, 0.0, 8.999999999999999e-08)"
1970/01/01/01:00:11.393000,35,11,393000000,base_link,0.000963836151829,4.18232150443e-05,-0.692157733927,-0.721745627641,"(1.0, 0.0, 0.0, 0.0, 1.0, 0.0, 0.0, 0.0, 1.0)",0.00485032889992,-0.00295969424769,0.0217805765569,"(1.2184696791468346e-07, 0.0, 0.0, 0.0, 1.2184696791468346e-07, 0.0, 0.0, 0.0, 1.2184696791468346e-07)",0.0,0.0,0.0,"(-1.0, 0.0, 0.0, 0.0, 8.999999999999999e-08, 0.0, 0.0, 0.0, 8.999999999999999e-08)"
1970/01/01/01:00:11.413000,36,11,413000000,base_link,0.000910119499494,-1.09816412601e-06,-0.692308781647,-0.721600901948,"(1.0, 0.0, 0.0, 0.0, 1.0, 0.0, 0.0, 0.0, 1.0)",0.00274421693757,0.00152425444685,0.0197982210666,"(1.2184696791468346e-07, 0.0, 0.0, 0.0, 1.2184696791468346e-07, 0.0, 0.0, 0.0, 1.2184696791468346e-07)",0.0,0.0,0.0,"(-1.0, 0.0, 0.0, 0.0, 8.999999999999999e-08, 0.0, 0.0, 0.0, 8.999999999999999e-08)"
1970/01/01/01:00:11.433000,37,11,433000000,base_link,0.000893505491692,-0.000147783767241,-0.692463911026,-0.72145192601,"(1.0, 0.0, 0.0, 0.0, 1.0, 0.0, 0.0, 0.0, 1.0)",0.0138432960957,0.00672705378383,0.0133794080466,"(1.2184696791468346e-07, 0.0, 0.0, 0.0, 1.2184696791468346e-07, 0.0, 0.0, 0.0, 1.2184696791468346e-07)",0.0,0.0,0.0,"(-1.0, 0.0, 0.0, 0.0, 8.999999999999999e-08, 0.0, 0.0, 0.0, 8.999999999999999e-08)"
1970/01/01/01:00:11.453000,38,11,452000000,base_link,0.000812727393367,-0.000114751792106,-0.692504761858,-0.721412845344,"(1.0, 0.0, 0.0, 0.0, 1.0, 0.0, 0.0, 0.0, 1.0)",-0.00238873227499,-0.0103815179318,0.00634921714664,"(1.2184696791468346e-07, 0.0, 0.0, 0.0, 1.2184696791468346e-07, 0.0, 0.0, 0.0, 1.2184696791468346e-07)",0.0,0.0,0.0,"(-1.0, 0.0, 0.0, 0.0, 8.999999999999999e-08, 0.0, 0.0, 0.0, 8.999999999999999e-08)"
1970/01/01/01:00:11.474000,39,11,474000000,base_link,0.000770524753789,-0.000143203363813,-0.692594990359,-0.721326241473,"(1.0, 0.0, 0.0, 0.0, 1.0, 0.0, 0.0, 0.0, 1.0)",0.0103755472228,0.00451386207715,0.0156726054847,"(1.2184696791468346e-07, 0.0, 0.0, 0.0, 1.2184696791468346e-07, 0.0, 0.0, 0.0, 1.2184696791468346e-07)",0.0,0.0,0.0,"(-1.0, 0.0, 0.0, 0.0, 8.999999999999999e-08, 0.0, 0.0, 0.0, 8.999999999999999e-08)"
1970/01/01/01:00:11.493000,40,11,492000000,base_link,0.00074804274399,-0.000174155079166,-0.692758115785,-0.721169606662,"(1.0, 0.0, 0.0, 0.0, 1.0, 0.0, 0.0, 0.0, 1.0)",0.00127800635528,-0.00569267198443,0.0245268456638,"(1.2184696791468346e-07, 0.0, 0.0, 0.0, 1.2184696791468346e-07, 0.0, 0.0, 0.0, 1.2184696791468346e-07)",0.0,0.0,0.0,"(-1.0, 0.0, 0.0, 0.0, 8.999999999999999e-08, 0.0, 0.0, 0.0, 8.999999999999999e-08)"
1970/01/01/01:00:11.513000,41,11,513000000,base_link,0.000754895516981,-0.000149279342398,-0.692907046942,-0.72102649177,"(1.0, 0.0, 0.0, 0.0, 1.0, 0.0, 0.0, 0.0, 1.0)",-0.00294063799083,-0.00375369843096,0.017769061029,"(1.2184696791468346e-07, 0.0, 0.0, 0.0, 1.2184696791468346e-07, 0.0, 0.0, 0.0, 1.2184696791468346e-07)",0.0,0.0,0.0,"(-1.0, 0.0, 0.0, 0.0, 8.999999999999999e-08, 0.0, 0.0, 0.0, 8.999999999999999e-08)"
1970/01/01/01:00:11.533000,42,11,533000000,base_link,0.000730262495024,-0.000154529423852,-0.693030441061,-0.720907902392,"(1.0, 0.0, 0.0, 0.0, 1.0, 0.0, 0.0, 0.0, 1.0)",0.00172221031971,-0.00448794895783,0.015794005245,"(1.2184696791468346e-07, 0.0, 0.0, 0.0, 1.2184696791468346e-07, 0.0, 0.0, 0.0, 1.2184696791468346e-07)",0.0,0.0,0.0,"(-1.0, 0.0, 0.0, 0.0, 8.999999999999999e-08, 0.0, 0.0, 0.0, 8.999999999999999e-08)"
1970/01/01/01:00:11.553000,43,11,553000000,base_link,0.000734050072602,-0.000121723000211,-0.69312428497,-0.720817767405,"(1.0, 0.0, 0.0, 0.0, 1.0, 0.0, 0.0, 0.0, 1.0)",-0.00293727312237,-0.00462983036414,0.00914410129189,"(1.2184696791468346e-07, 0.0, 0.0, 0.0, 1.2184696791468346e-07, 0.0, 0.0, 0.0, 1.2184696791468346e-07)",0.0,0.0,0.0,"(-1.0, 0.0, 0.0, 0.0, 8.999999999999999e-08, 0.0, 0.0, 0.0, 8.999999999999999e-08)"
1970/01/01/01:00:11.575000,44,11,575000000,base_link,0.000679623694503,-0.000155342335309,-0.69322434554,-0.720721500052,"(1.0, 0.0, 0.0, 0.0, 1.0, 0.0, 0.0, 0.0, 1.0)",0.00789141841233,-0.00361614255235,0.0167857818305,"(1.2184696791468346e-07, 0.0, 0.0, 0.0, 1.2184696791468346e-07, 0.0, 0.0, 0.0, 1.2184696791468346e-07)",0.0,0.0,0.0,"(-1.0, 0.0, 0.0, 0.0, 8.999999999999999e-08, 0.0, 0.0, 0.0, 8.999999999999999e-08)"
1970/01/01/01:00:11.593000,45,11,593000000,base_link,0.000674136084277,-0.000249760619073,-0.693345741634,-0.720604655817,"(1.0, 0.0, 0.0, 0.0, 1.0, 0.0, 0.0, 0.0, 1.0)",0.0101063586771,0.00717644579709,0.0233089178801,"(1.2184696791468346e-07, 0.0, 0.0, 0.0, 1.2184696791468346e-07, 0.0, 0.0, 0.0, 1.2184696791468346e-07)",0.0,0.0,0.0,"(-1.0, 0.0, 0.0, 0.0, 8.999999999999999e-08, 0.0, 0.0, 0.0, 8.999999999999999e-08)"
1970/01/01/01:00:11.613000,46,11,613000000,base_link,0.000614848824528,-0.000279631601149,-0.693515114014,-0.720441689758,"(1.0, 0.0, 0.0, 0.0, 1.0, 0.0, 0.0, 0.0, 1.0)",0.00526575278491,-0.00385956512764,0.0185180976987,"(1.2184696791468346e-07, 0.0, 0.0, 0.0, 1.2184696791468346e-07, 0.0, 0.0, 0.0, 1.2184696791468346e-07)",0.0,0.0,0.0,"(-1.0, 0.0, 0.0, 0.0, 8.999999999999999e-08, 0.0, 0.0, 0.0, 8.999999999999999e-08)"
1970/01/01/01:00:11.634000,47,11,633000000,base_link,0.00064715785156,-0.000308930400656,-0.69360088285,-0.720359208376,"(1.0, 0.0, 0.0, 0.0, 1.0, 0.0, 0.0, 0.0, 1.0)",-0.00694678910077,0.00367982080206,0.00746545940638,"(1.2184696791468346e-07, 0.0, 0.0, 0.0, 1.2184696791468346e-07, 0.0, 0.0, 0.0, 1.2184696791468346e-07)",0.0,0.0,0.0,"(-1.0, 0.0, 0.0, 0.0, 8.999999999999999e-08, 0.0, 0.0, 0.0, 8.999999999999999e-08)"
1970/01/01/01:00:11.653000,48,11,653000000,base_link,0.000591041720281,-0.000353232161143,-0.69372128586,-0.720243357226,"(1.0, 0.0, 0.0, 0.0, 1.0, 0.0, 0.0, 0.0, 1.0)",0.0103495512158,-0.000754451961257,0.0183150880039,"(1.2184696791468346e-07, 0.0, 0.0, 0.0, 1.2184696791468346e-07, 0.0, 0.0, 0.0, 1.2184696791468346e-07)",0.0,0.0,0.0,"(-1.0, 0.0, 0.0, 0.0, 8.999999999999999e-08, 0.0, 0.0, 0.0, 8.999999999999999e-08)"
1970/01/01/01:00:11.673000,49,11,673000000,base_link,0.000554270200158,-0.000335422606946,-0.693856612805,-0.720113003609,"(1.0, 0.0, 0.0, 0.0, 1.0, 0.0, 0.0, 0.0, 1.0)",0.00278140371665,-0.00179685174953,0.0081796310842,"(1.2184696791468346e-07, 0.0, 0.0, 0.0, 1.2184696791468346e-07, 0.0, 0.0, 0.0, 1.2184696791468346e-07)",0.0,0.0,0.0,"(-1.0, 0.0, 0.0, 0.0, 8.999999999999999e-08, 0.0, 0.0, 0.0, 8.999999999999999e-08)"
1970/01/01/01:00:11.693000,50,11,692000000,base_link,0.000483183052452,-0.000364932876413,-0.69399036056,-0.719984144888,"(1.0, 0.0, 0.0, 0.0, 1.0, 0.0, 0.0, 0.0, 1.0)",0.00625345576555,-0.00590466381982,0.0180685799569,"(1.2184696791468346e-07, 0.0, 0.0, 0.0, 1.2184696791468346e-07, 0.0, 0.0, 0.0, 1.2184696791468346e-07)",0.0,0.0,0.0,"(-1.0, 0.0, 0.0, 0.0, 8.999999999999999e-08, 0.0, 0.0, 0.0, 8.999999999999999e-08)"
1970/01/01/01:00:11.713000,51,11,713000000,base_link,0.000507029700238,-0.000422312507649,-0.694082351325,-0.719895441577,"(1.0, 0.0, 0.0, 0.0, 1.0, 0.0, 0.0, 0.0, 1.0)",0.0051183803007,0.00281481607817,0.00938593782485,"(1.2184696791468346e-07, 0.0, 0.0, 0.0, 1.2184696791468346e-07, 0.0, 0.0, 0.0, 1.2184696791468346e-07)",0.0,0.0,0.0,"(-1.0, 0.0, 0.0, 0.0, 8.999999999999999e-08, 0.0, 0.0, 0.0, 8.999999999999999e-08)"
1970/01/01/01:00:11.733000,52,11,732000000,base_link,0.000425892880372,-0.00051458638528,-0.694258859693,-0.719725170943,"(1.0, 0.0, 0.0, 0.0, 1.0, 0.0, 0.0, 0.0, 1.0)",0.0112007651478,0.000870698422659,0.0147709054872,"(1.2184696791468346e-07, 0.0, 0.0, 0.0, 1.2184696791468346e-07, 0.0, 0.0, 0.0, 1.2184696791468346e-07)",0.0,0.0,0.0,"(-1.0, 0.0, 0.0, 0.0, 8.999999999999999e-08, 0.0, 0.0, 0.0, 8.999999999999999e-08)"
1970/01/01/01:00:11.753000,53,11,752000000,base_link,0.000395591791559,-0.000570222339859,-0.694331563007,-0.71965499644,"(1.0, 0.0, 0.0, 0.0, 1.0, 0.0, 0.0, 0.0, 1.0)",0.00788857601583,0.00374202337116,0.00586824258789,"(1.2184696791468346e-07, 0.0, 0.0, 0.0, 1.2184696791468346e-07, 0.0, 0.0, 0.0, 1.2184696791468346e-07)",0.0,0.0,0.0,"(-1.0, 0.0, 0.0, 0.0, 8.999999999999999e-08, 0.0, 0.0, 0.0, 8.999999999999999e-08)"
1970/01/01/01:00:11.772000,54,11,772000000,base_link,0.000373665320646,-0.00051011359214,-0.694457454326,-0.719533572687,"(1.0, 0.0, 0.0, 0.0, 1.0, 0.0, 0.0, 0.0, 1.0)",-0.00443779164925,-0.00445217173547,0.0151984523982,"(1.2184696791468346e-07, 0.0, 0.0, 0.0, 1.2184696791468346e-07, 0.0, 0.0, 0.0, 1.2184696791468346e-07)",0.0,0.0,0.0,"(-1.0, 0.0, 0.0, 0.0, 8.999999999999999e-08, 0.0, 0.0, 0.0, 8.999999999999999e-08)"
1970/01/01/01:00:11.792000,55,11,792000000,base_link,0.00040016163255,-0.000478693260632,-0.694514407889,-0.719478557879,"(1.0, 0.0, 0.0, 0.0, 1.0, 0.0, 0.0, 0.0, 1.0)",-0.00117325061001,0.0016825303901,0.00135170551948,"(1.2184696791468346e-07, 0.0, 0.0, 0.0, 1.2184696791468346e-07, 0.0, 0.0, 0.0, 1.2184696791468346e-07)",0.0,0.0,0.0,"(-1.0, 0.0, 0.0, 0.0, 8.999999999999999e-08, 0.0, 0.0, 0.0, 8.999999999999999e-08)"
1970/01/01/01:00:11.813000,56,11,813000000,base_link,0.000334241882948,-0.000414417526235,-0.694575524771,-0.719419716927,"(1.0, 0.0, 0.0, 0.0, 1.0, 0.0, 0.0, 0.0, 1.0)",0.0014163008891,-0.0169604439288,0.00383811374195,"(1.2184696791468346e-07, 0.0, 0.0, 0.0, 1.2184696791468346e-07, 0.0, 0.0, 0.0, 1.2184696791468346e-07)",0.0,0.0,0.0,"(-1.0, 0.0, 0.0, 0.0, 8.999999999999999e-08, 0.0, 0.0, 0.0, 8.999999999999999e-08)"
1970/01/01/01:00:11.833000,57,11,833000000,base_link,0.000348487098437,-0.000402604644886,-0.69461935881,-0.719377400174,"(1.0, 0.0, 0.0, 0.0, 1.0, 0.0, 0.0, 0.0, 1.0)",-0.00436554430053,0.00652929814532,0.00988822430372,"(1.2184696791468346e-07, 0.0, 0.0, 0.0, 1.2184696791468346e-07, 0.0, 0.0, 0.0, 1.2184696791468346e-07)",0.0,0.0,0.0,"(-1.0, 0.0, 0.0, 0.0, 8.999999999999999e-08, 0.0, 0.0, 0.0, 8.999999999999999e-08)"
1970/01/01/01:00:11.853000,58,11,853000000,base_link,0.000321523634095,-0.000514337686975,-0.694631458907,-0.719365637252,"(1.0, 0.0, 0.0, 0.0, 1.0, 0.0, 0.0, 0.0, 1.0)",0.00956167373806,0.00413064286113,-0.00253922655247,"(1.2184696791468346e-07, 0.0, 0.0, 0.0, 1.2184696791468346e-07, 0.0, 0.0, 0.0, 1.2184696791468346e-07)",0.0,0.0,0.0,"(-1.0, 0.0, 0.0, 0.0, 8.999999999999999e-08, 0.0, 0.0, 0.0, 8.999999999999999e-08)"
1970/01/01/01:00:11.876000,59,11,876000000,base_link,0.000311515126111,-0.000555987365252,-0.694645255415,-0.719352177919,"(1.0, 0.0, 0.0, 0.0, 1.0, 0.0, 0.0, 0.0, 1.0)",0.00200290489011,-0.0049713216722,0.00759351439774,"(1.2184696791468346e-07, 0.0, 0.0, 0.0, 1.2184696791468346e-07, 0.0, 0.0, 0.0, 1.2184696791468346e-07)",0.0,0.0,0.0,"(-1.0, 0.0, 0.0, 0.0, 8.999999999999999e-08, 0.0, 0.0, 0.0, 8.999999999999999e-08)"
1970/01/01/01:00:11.893000,60,11,893000000,base_link,0.000281672564347,-0.000538375868316,-0.694658093081,-0.719339930309,"(1.0, 0.0, 0.0, 0.0, 1.0, 0.0, 0.0, 0.0, 1.0)",-0.00367426173761,-0.00294837914407,0.000580148014706,"(1.2184696791468346e-07, 0.0, 0.0, 0.0, 1.2184696791468346e-07, 0.0, 0.0, 0.0, 1.2184696791468346e-07)",0.0,0.0,0.0,"(-1.0, 0.0, 0.0, 0.0, 8.999999999999999e-08, 0.0, 0.0, 0.0, 8.999999999999999e-08)"
1970/01/01/01:00:11.914000,61,11,912000000,base_link,0.000220267240244,-0.000536163652677,-0.694685348921,-0.719313601699,"(1.0, 0.0, 0.0, 0.0, 1.0, 0.0, 0.0, 0.0, 1.0)",0.00655899150297,-0.00265506701544,0.00472912425175,"(1.2184696791468346e-07, 0.0, 0.0, 0.0, 1.2184696791468346e-07, 0.0, 0.0, 0.0, 1.2184696791468346e-07)",0.0,0.0,0.0,"(-1.0, 0.0, 0.0, 0.0, 8.999999999999999e-08, 0.0, 0.0, 0.0, 8.999999999999999e-08)"
1970/01/01/01:00:11.933000,62,11,933000000,base_link,0.000175037096637,-0.00055487412663,-0.694717089449,-0.719282956989,"(1.0, 0.0, 0.0, 0.0, 1.0, 0.0, 0.0, 0.0, 1.0)",0.00869730114937,-0.00155611359514,0.00429620686918,"(1.2184696791468346e-07, 0.0, 0.0, 0.0, 1.2184696791468346e-07, 0.0, 0.0, 0.0, 1.2184696791468346e-07)",0.0,0.0,0.0,"(-1.0, 0.0, 0.0, 0.0, 8.999999999999999e-08, 0.0, 0.0, 0.0, 8.999999999999999e-08)"
1970/01/01/01:00:11.954000,63,11,954000000,base_link,0.000210447888881,-0.000519411062416,-0.69476872329,-0.719233009022,"(1.0, 0.0, 0.0, 0.0, 1.0, 0.0, 0.0, 0.0, 1.0)",-0.00734424311668,-0.00281153945252,0.0105397505686,"(1.2184696791468346e-07, 0.0, 0.0, 0.0, 1.2184696791468346e-07, 0.0, 0.0, 0.0, 1.2184696791468346e-07)",0.0,0.0,0.0,"(-1.0, 0.0, 0.0, 0.0, 8.999999999999999e-08, 0.0, 0.0, 0.0, 8.999999999999999e-08)"
1970/01/01/01:00:11.975000,64,11,974000000,base_link,0.000176053724721,-0.000545108076213,-0.694797995594,-0.719204748243,"(1.0, 0.0, 0.0, 0.0, 1.0, 0.0, 0.0, 0.0, 1.0)",0.00723227066919,0.000361765880371,0.00489743566141,"(1.2184696791468346e-07, 0.0, 0.0, 0.0, 1.2184696791468346e-07, 0.0, 0.0, 0.0, 1.2184696791468346e-07)",0.0,0.0,0.0,"(-1.0, 0.0, 0.0, 0.0, 8.999999999999999e-08, 0.0, 0.0, 0.0, 8.999999999999999e-08)"
1970/01/01/01:00:11.993000,65,11,993000000,base_link,9.49692591432e-05,-0.000531003020089,-0.694835580046,-0.71916851249,"(1.0, 0.0, 0.0, 0.0, 1.0, 0.0, 0.0, 0.0, 1.0)",0.00667234556749,-0.00795509014279,0.00302581605501,"(1.2184696791468346e-07, 0.0, 0.0, 0.0, 1.2184696791468346e-07, 0.0, 0.0, 0.0, 1.2184696791468346e-07)",0.0,0.0,0.0,"(-1.0, 0.0, 0.0, 0.0, 8.999999999999999e-08, 0.0, 0.0, 0.0, 8.999999999999999e-08)"
1970/01/01/01:00:12.013000,66,12,13000000,base_link,0.000136105077198,-0.000657452497132,-0.6948557078,-0.719148890498,"(1.0, 0.0, 0.0, 0.0, 1.0, 0.0, 0.0, 0.0, 1.0)",0.00876627210528,0.0162374489009,0.00339273177087,"(1.2184696791468346e-07, 0.0, 0.0, 0.0, 1.2184696791468346e-07, 0.0, 0.0, 0.0, 1.2184696791468346e-07)",0.0,0.0,0.0,"(-1.0, 0.0, 0.0, 0.0, 8.999999999999999e-08, 0.0, 0.0, 0.0, 8.999999999999999e-08)"
1970/01/01/01:00:12.033000,67,12,33000000,base_link,0.000176517442952,-0.000611606809915,-0.694857666311,-0.71914701628,"(1.0, 0.0, 0.0, 0.0, 1.0, 0.0, 0.0, 0.0, 1.0)",-0.00795775093138,-0.0042810277082,0.00522692548111,"(1.2184696791468346e-07, 0.0, 0.0, 0.0, 1.2184696791468346e-07, 0.0, 0.0, 0.0, 1.2184696791468346e-07)",0.0,0.0,0.0,"(-1.0, 0.0, 0.0, 0.0, 8.999999999999999e-08, 0.0, 0.0, 0.0, 8.999999999999999e-08)"
1970/01/01/01:00:12.053000,68,12,53000000,base_link,0.000175228156862,-0.000556945002154,-0.694888696929,-0.719117165775,"(1.0, 0.0, 0.0, 0.0, 1.0, 0.0, 0.0, 0.0, 1.0)",-0.00769738899544,-0.000850889016874,0.00909697357565,"(1.2184696791468346e-07, 0.0, 0.0, 0.0, 1.2184696791468346e-07, 0.0, 0.0, 0.0, 1.2184696791468346e-07)",0.0,0.0,0.0,"(-1.0, 0.0, 0.0, 0.0, 8.999999999999999e-08, 0.0, 0.0, 0.0, 8.999999999999999e-08)"
1970/01/01/01:00:12.076000,69,12,75000000,base_link,0.000183156199268,-0.000473624726522,-0.694919656423,-0.719087302099,"(1.0, 0.0, 0.0, 0.0, 1.0, 0.0, 0.0, 0.0, 1.0)",-0.00174358661752,-0.00744129018858,0.00586897088215,"(1.2184696791468346e-07, 0.0, 0.0, 0.0, 1.2184696791468346e-07, 0.0, 0.0, 0.0, 1.2184696791468346e-07)",0.0,0.0,0.0,"(-1.0, 0.0, 0.0, 0.0, 8.999999999999999e-08, 0.0, 0.0, 0.0, 8.999999999999999e-08)"
1970/01/01/01:00:12.093000,70,12,93000000,base_link,0.000164793930723,-0.000414486596235,-0.694939183585,-0.719068449286,"(1.0, 0.0, 0.0, 0.0, 1.0, 0.0, 0.0, 0.0, 1.0)",-0.00454282853752,-0.00299859652296,0.00285055395216,"(1.2184696791468346e-07, 0.0, 0.0, 0.0, 1.2184696791468346e-07, 0.0, 0.0, 0.0, 1.2184696791468346e-07)",0.0,0.0,0.0,"(-1.0, 0.0, 0.0, 0.0, 8.999999999999999e-08, 0.0, 0.0, 0.0, 8.999999999999999e-08)"
1970/01/01/01:00:12.114000,71,12,113000000,base_link,0.000216869767969,-0.000421368767065,-0.694950610649,-0.719057359397,"(1.0, 0.0, 0.0, 0.0, 1.0, 0.0, 0.0, 0.0, 1.0)",-0.00394501816481,0.0012573231943,0.00411982368678,"(1.2184696791468346e-07, 0.0, 0.0, 0.0, 1.2184696791468346e-07, 0.0, 0.0, 0.0, 1.2184696791468346e-07)",0.0,0.0,0.0,"(-1.0, 0.0, 0.0, 0.0, 8.999999999999999e-08, 0.0, 0.0, 0.0, 8.999999999999999e-08)"
1970/01/01/01:00:12.145000,72,12,144000000,base_link,0.000172123304723,-0.000401590092761,-0.694974069322,-0.719034743661,"(1.0, 0.0, 0.0, 0.0, 1.0, 0.0, 0.0, 0.0, 1.0)",0.00360323674977,-0.00629025045782,0.00442139804363,"(1.2184696791468346e-07, 0.0, 0.0, 0.0, 1.2184696791468346e-07, 0.0, 0.0, 0.0, 1.2184696791468346e-07)",0.0,0.0,0.0,"(-1.0, 0.0, 0.0, 0.0, 8.999999999999999e-08, 0.0, 0.0, 0.0, 8.999999999999999e-08)"
1970/01/01/01:00:12.159000,73,12,157000000,base_link,0.000205997877266,-0.000450991354384,-0.694946655431,-0.719061146028,"(1.0, 0.0, 0.0, 0.0, 1.0, 0.0, 0.0, 0.0, 1.0)",0.00211732368916,0.00759695284069,0.00377665879205,"(1.2184696791468346e-07, 0.0, 0.0, 0.0, 1.2184696791468346e-07, 0.0, 0.0, 0.0, 1.2184696791468346e-07)",0.0,0.0,0.0,"(-1.0, 0.0, 0.0, 0.0, 8.999999999999999e-08, 0.0, 0.0, 0.0, 8.999999999999999e-08)"
1970/01/01/01:00:12.174000,74,12,173000000,base_link,0.000206443341466,-0.000467654958819,-0.69496666333,-0.719041812478,"(1.0, 0.0, 0.0, 0.0, 1.0, 0.0, 0.0, 0.0, 1.0)",-0.00146089028567,0.00333749246784,0.00599716603756,"(1.2184696791468346e-07, 0.0, 0.0, 0.0, 1.2184696791468346e-07, 0.0, 0.0, 0.0, 1.2184696791468346e-07)",0.0,0.0,0.0,"(-1.0, 0.0, 0.0, 0.0, 8.999999999999999e-08, 0.0, 0.0, 0.0, 8.999999999999999e-08)"
1970/01/01/01:00:12.193000,75,12,193000000,base_link,0.000194029489378,-0.000481721592987,-0.694984126613,-0.719024939251,"(1.0, 0.0, 0.0, 0.0, 1.0, 0.0, 0.0, 0.0, 1.0)",0.00887853465974,-0.00360742490739,0.000879200408235,"(1.2184696791468346e-07, 0.0, 0.0, 0.0, 1.2184696791468346e-07, 0.0, 0.0, 0.0, 1.2184696791468346e-07)",0.0,0.0,0.0,"(-1.0, 0.0, 0.0, 0.0, 8.999999999999999e-08, 0.0, 0.0, 0.0, 8.999999999999999e-08)"
1970/01/01/01:00:12.213000,76,12,213000000,base_link,0.000172969256592,-0.000499775076185,-0.695007320551,-0.719002503957,"(1.0, 0.0, 0.0, 0.0, 1.0, 0.0, 0.0, 0.0, 1.0)",0.00217171665281,-0.0002051696938,0.0068499930203,"(1.2184696791468346e-07, 0.0, 0.0, 0.0, 1.2184696791468346e-07, 0.0, 0.0, 0.0, 1.2184696791468346e-07)",0.0,0.0,0.0,"(-1.0, 0.0, 0.0, 0.0, 8.999999999999999e-08, 0.0, 0.0, 0.0, 8.999999999999999e-08)"
1970/01/01/01:00:12.233000,77,12,233000000,base_link,0.000169949048001,-0.000481929260881,-0.694995029476,-0.719014373563,"(1.0, 0.0, 0.0, 0.0, 1.0, 0.0, 0.0, 0.0, 1.0)",0.00327335344627,-0.00180658861063,-0.00153964676429,"(1.2184696791468346e-07, 0.0, 0.0, 0.0, 1.2184696791468346e-07, 0.0, 0.0, 0.0, 1.2184696791468346e-07)",0.0,0.0,0.0,"(-1.0, 0.0, 0.0, 0.0, 8.999999999999999e-08, 0.0, 0.0, 0.0, 8.999999999999999e-08)"
1970/01/01/01:00:12.253000,78,12,253000000,base_link,0.000246732641715,-0.000514590002129,-0.694980981405,-0.719027915872,"(1.0, 0.0, 0.0, 0.0, 1.0, 0.0, 0.0, 0.0, 1.0)",-0.004468803294,0.00920332223177,0.00238479860127,"(1.2184696791468346e-07, 0.0, 0.0, 0.0, 1.2184696791468346e-07, 0.0, 0.0, 0.0, 1.2184696791468346e-07)",0.0,0.0,0.0,"(-1.0, 0.0, 0.0, 0.0, 8.999999999999999e-08, 0.0, 0.0, 0.0, 8.999999999999999e-08)"
1970/01/01/01:00:12.274000,79,12,274000000,base_link,0.000293150341721,-0.000439839906393,-0.694977229018,-0.719031668259,"(1.0, 0.0, 0.0, 0.0, 1.0, 0.0, 0.0, 0.0, 1.0)",-0.00731779588386,-0.00514246709645,-0.00167395221069,"(1.2184696791468346e-07, 0.0, 0.0, 0.0, 1.2184696791468346e-07, 0.0, 0.0, 0.0, 1.2184696791468346e-07)",0.0,0.0,0.0,"(-1.0, 0.0, 0.0, 0.0, 8.999999999999999e-08, 0.0, 0.0, 0.0, 8.999999999999999e-08)"
1970/01/01/01:00:12.293000,80,12,293000000,base_link,0.000248236109117,-0.000460640708657,-0.694973556974,-0.719035171715,"(1.0, 0.0, 0.0, 0.0, 1.0, 0.0, 0.0, 0.0, 1.0)",0.00714373541996,-0.00206592748873,-0.000532830832526,"(1.2184696791468346e-07, 0.0, 0.0, 0.0, 1.2184696791468346e-07, 0.0, 0.0, 0.0, 1.2184696791468346e-07)",0.0,0.0,0.0,"(-1.0, 0.0, 0.0, 0.0, 8.999999999999999e-08, 0.0, 0.0, 0.0, 8.999999999999999e-08)"
1970/01/01/01:00:12.313000,81,12,313000000,base_link,0.000205585546086,-0.000436419451943,-0.694927083488,-0.719080212208,"(1.0, 0.0, 0.0, 0.0, 1.0, 0.0, 0.0, 0.0, 1.0)",0.00499753234908,-0.00692813750356,-0.00779858743772,"(1.2184696791468346e-07, 0.0, 0.0, 0.0, 1.2184696791468346e-07, 0.0, 0.0, 0.0, 1.2184696791468346e-07)",0.0,0.0,0.0,"(-1.0, 0.0, 0.0, 0.0, 8.999999999999999e-08, 0.0, 0.0, 0.0, 8.999999999999999e-08)"
1970/01/01/01:00:12.333000,82,12,333000000,base_link,0.00011942461814,-0.00042401215443,-0.694900486192,-0.71910579798,"(1.0, 0.0, 0.0, 0.0, 1.0, 0.0, 0.0, 0.0, 1.0)",0.00809555966407,-0.00636685080826,-0.000391246692743,"(1.2184696791468346e-07, 0.0, 0.0, 0.0, 1.2184696791468346e-07, 0.0, 0.0, 0.0, 1.2184696791468346e-07)",0.0,0.0,0.0,"(-1.0, 0.0, 0.0, 0.0, 8.999999999999999e-08, 0.0, 0.0, 0.0, 8.999999999999999e-08)"
1970/01/01/01:00:12.353000,83,12,353000000,base_link,9.32271208064e-05,-0.000464386921408,-0.694906251091,-0.719100285962,"(1.0, 0.0, 0.0, 0.0, 1.0, 0.0, 0.0, 0.0, 1.0)",0.00025255640503,-0.00307178543881,0.00625370210037,"(1.2184696791468346e-07, 0.0, 0.0, 0.0, 1.2184696791468346e-07, 0.0, 0.0, 0.0, 1.2184696791468346e-07)",0.0,0.0,0.0,"(-1.0, 0.0, 0.0, 0.0, 8.999999999999999e-08, 0.0, 0.0, 0.0, 8.999999999999999e-08)"
1970/01/01/01:00:12.379000,84,12,379000000,base_link,0.000141335011306,-0.000384693425309,-0.69489946018,-0.719106823992,"(1.0, 0.0, 0.0, 0.0, 1.0, 0.0, 0.0, 0.0, 1.0)",-0.0117667941377,-0.00304226391017,-0.00370161770843,"(1.2184696791468346e-07, 0.0, 0.0, 0.0, 1.2184696791468346e-07, 0.0, 0.0, 0.0, 1.2184696791468346e-07)",0.0,0.0,0.0,"(-1.0, 0.0, 0.0, 0.0, 8.999999999999999e-08, 0.0, 0.0, 0.0, 8.999999999999999e-08)"
1970/01/01/01:00:12.393000,85,12,393000000,base_link,0.000201381439106,-0.000405299149197,-0.694903020272,-0.719103348194,"(1.0, 0.0, 0.0, 0.0, 1.0, 0.0, 0.0, 0.0, 1.0)",-0.00188261200674,0.0067020743154,0.00167509017047,"(1.2184696791468346e-07, 0.0, 0.0, 0.0, 1.2184696791468346e-07, 0.0, 0.0, 0.0, 1.2184696791468346e-07)",0.0,0.0,0.0,"(-1.0, 0.0, 0.0, 0.0, 8.999999999999999e-08, 0.0, 0.0, 0.0, 8.999999999999999e-08)"
1970/01/01/01:00:12.413000,86,12,413000000,base_link,0.000243053790864,-0.000378169271172,-0.694889435816,-0.719116595475,"(1.0, 0.0, 0.0, 0.0, 1.0, 0.0, 0.0, 0.0, 1.0)",-0.00863938964903,0.000125663238578,-0.00180773762986,"(1.2184696791468346e-07, 0.0, 0.0, 0.0, 1.2184696791468346e-07, 0.0, 0.0, 0.0, 1.2184696791468346e-07)",0.0,0.0,0.0,"(-1.0, 0.0, 0.0, 0.0, 8.999999999999999e-08, 0.0, 0.0, 0.0, 8.999999999999999e-08)"
1970/01/01/01:00:12.433000,87,12,433000000,base_link,0.000272030320297,-0.000363667056116,-0.69492005155,-0.719086906972,"(1.0, 0.0, 0.0, 0.0, 1.0, 0.0, 0.0, 0.0, 1.0)",-0.00121580262203,0.00480599608272,0.00777931138873,"(1.2184696791468346e-07, 0.0, 0.0, 0.0, 1.2184696791468346e-07, 0.0, 0.0, 0.0, 1.2184696791468346e-07)",0.0,0.0,0.0,"(-1.0, 0.0, 0.0, 0.0, 8.999999999999999e-08, 0.0, 0.0, 0.0, 8.999999999999999e-08)"
1970/01/01/01:00:12.453000,88,12,453000000,base_link,0.000201017768191,-0.000418956405345,-0.694955253388,-0.719052969539,"(1.0, 0.0, 0.0, 0.0, 1.0, 0.0, 0.0, 0.0, 1.0)",0.00966728944331,-0.00238544424064,0.00267453817651,"(1.2184696791468346e-07, 0.0, 0.0, 0.0, 1.2184696791468346e-07, 0.0, 0.0, 0.0, 1.2184696791468346e-07)",0.0,0.0,0.0,"(-1.0, 0.0, 0.0, 0.0, 8.999999999999999e-08, 0.0, 0.0, 0.0, 8.999999999999999e-08)"
1970/01/01/01:00:12.475000,89,12,474000000,base_link,0.000289275285765,-0.000387585444095,-0.694984188516,-0.719024877348,"(1.0, 0.0, 0.0, 0.0, 1.0, 0.0, 0.0, 0.0, 1.0)",-0.0123816821724,0.00418418552727,0.00204205629416,"(1.2184696791468346e-07, 0.0, 0.0, 0.0, 1.2184696791468346e-07, 0.0, 0.0, 0.0, 1.2184696791468346e-07)",0.0,0.0,0.0,"(-1.0, 0.0, 0.0, 0.0, 8.999999999999999e-08, 0.0, 0.0, 0.0, 8.999999999999999e-08)"
1970/01/01/01:00:12.493000,90,12,493000000,base_link,0.000266463412051,-0.000358775701349,-0.695006806886,-0.719003186209,"(1.0, 0.0, 0.0, 0.0, 1.0, 0.0, 0.0, 0.0, 1.0)",0.00151843694039,-0.00697555579245,0.00593398232013,"(1.2184696791468346e-07, 0.0, 0.0, 0.0, 1.2184696791468346e-07, 0.0, 0.0, 0.0, 1.2184696791468346e-07)",0.0,0.0,0.0,"(-1.0, 0.0, 0.0, 0.0, 8.999999999999999e-08, 0.0, 0.0, 0.0, 8.999999999999999e-08)"
1970/01/01/01:00:12.513000,91,12,513000000,base_link,0.000281008288443,-0.00043610757967,-0.694983759145,-0.719025391012,"(1.0, 0.0, 0.0, 0.0, 1.0, 0.0, 0.0, 0.0, 1.0)",0.00478158937767,0.010350862518,-0.0050572049804,"(1.2184696791468346e-07, 0.0, 0.0, 0.0, 1.2184696791468346e-07, 0.0, 0.0, 0.0, 1.2184696791468346e-07)",0.0,0.0,0.0,"(-1.0, 0.0, 0.0, 0.0, 8.999999999999999e-08, 0.0, 0.0, 0.0, 8.999999999999999e-08)"
1970/01/01/01:00:12.533000,92,12,533000000,base_link,0.000394451776415,-0.000423403620718,-0.694978410447,-0.71903048683,"(1.0, 0.0, 0.0, 0.0, 1.0, 0.0, 0.0, 0.0, 1.0)",-0.0133146867156,0.0040484899655,0.00140378763899,"(1.2184696791468346e-07, 0.0, 0.0, 0.0, 1.2184696791468346e-07, 0.0, 0.0, 0.0, 1.2184696791468346e-07)",0.0,0.0,0.0,"(-1.0, 0.0, 0.0, 0.0, 8.999999999999999e-08, 0.0, 0.0, 0.0, 8.999999999999999e-08)"
1970/01/01/01:00:12.553000,93,12,553000000,base_link,0.000329544845114,-0.000361678040762,-0.695034474975,-0.718976276763,"(1.0, 0.0, 0.0, 0.0, 1.0, 0.0, 0.0, 0.0, 1.0)",0.00521556567401,-0.0100634125993,0.00435229204595,"(1.2184696791468346e-07, 0.0, 0.0, 0.0, 1.2184696791468346e-07, 0.0, 0.0, 0.0, 1.2184696791468346e-07)",0.0,0.0,0.0,"(-1.0, 0.0, 0.0, 0.0, 8.999999999999999e-08, 0.0, 0.0, 0.0, 8.999999999999999e-08)"
1970/01/01/01:00:12.575000,94,12,574000000,base_link,0.000311155217389,-0.000335892502891,-0.695063075563,-0.718948603406,"(1.0, 0.0, 0.0, 0.0, 1.0, 0.0, 0.0, 0.0, 1.0)",-0.00448318570852,-0.00704353954643,0.00521849561483,"(1.2184696791468346e-07, 0.0, 0.0, 0.0, 1.2184696791468346e-07, 0.0, 0.0, 0.0, 1.2184696791468346e-07)",0.0,0.0,0.0,"(-1.0, 0.0, 0.0, 0.0, 8.999999999999999e-08, 0.0, 0.0, 0.0, 8.999999999999999e-08)"
1970/01/01/01:00:12.593000,95,12,593000000,base_link,0.000270191641522,-0.000290849260517,-0.69510369854,-0.718909497716,"(1.0, 0.0, 0.0, 0.0, 1.0, 0.0, 0.0, 0.0, 1.0)",0.00114006921649,-0.0030327020213,0.00632824748755,"(1.2184696791468346e-07, 0.0, 0.0, 0.0, 1.2184696791468346e-07, 0.0, 0.0, 0.0, 1.2184696791468346e-07)",0.0,0.0,0.0,"(-1.0, 0.0, 0.0, 0.0, 8.999999999999999e-08, 0.0, 0.0, 0.0, 8.999999999999999e-08)"
1970/01/01/01:00:12.614000,96,12,612000000,base_link,0.000329625863774,-0.000337982562704,-0.695131716974,-0.718882322218,"(1.0, 0.0, 0.0, 0.0, 1.0, 0.0, 0.0, 0.0, 1.0)",0.00183999945875,-0.000281683227513,0.00268776388839,"(1.2184696791468346e-07, 0.0, 0.0, 0.0, 1.2184696791468346e-07, 0.0, 0.0, 0.0, 1.2184696791468346e-07)",0.0,0.0,0.0,"(-1.0, 0.0, 0.0, 0.0, 8.999999999999999e-08, 0.0, 0.0, 0.0, 8.999999999999999e-08)"
1970/01/01/01:00:12.633000,97,12,633000000,base_link,0.000294085559813,-0.0003715693767,-0.695212367603,-0.718804284694,"(1.0, 0.0, 0.0, 0.0, 1.0, 0.0, 0.0, 0.0, 1.0)",0.00334847974591,0.00116966944188,0.0124495774508,"(1.2184696791468346e-07, 0.0, 0.0, 0.0, 1.2184696791468346e-07, 0.0, 0.0, 0.0, 1.2184696791468346e-07)",0.0,0.0,0.0,"(-1.0, 0.0, 0.0, 0.0, 8.999999999999999e-08, 0.0, 0.0, 0.0, 8.999999999999999e-08)"
1970/01/01/01:00:12.653000,98,12,652000000,base_link,0.000380333401646,-0.000376500932104,-0.69522625499,-0.718790903069,"(1.0, 0.0, 0.0, 0.0, 1.0, 0.0, 0.0, 0.0, 1.0)",-0.00445639248937,0.00161283835769,0.00410937983543,"(1.2184696791468346e-07, 0.0, 0.0, 0.0, 1.2184696791468346e-07, 0.0, 0.0, 0.0, 1.2184696791468346e-07)",0.0,0.0,0.0,"(-1.0, 0.0, 0.0, 0.0, 8.999999999999999e-08, 0.0, 0.0, 0.0, 8.999999999999999e-08)"
1970/01/01/01:00:12.673000,99,12,673000000,base_link,0.000397110347604,-0.000436109633762,-0.695327140057,-0.718693136869,"(1.0, 0.0, 0.0, 0.0, 1.0, 0.0, 0.0, 0.0, 1.0)",0.00469286646694,0.00340872746892,0.0143628697842,"(1.2184696791468346e-07, 0.0, 0.0, 0.0, 1.2184696791468346e-07, 0.0, 0.0, 0.0, 1.2184696791468346e-07)",0.0,0.0,0.0,"(-1.0, 0.0, 0.0, 0.0, 8.999999999999999e-08, 0.0, 0.0, 0.0, 8.999999999999999e-08)"
1970/01/01/01:00:12.693000,100,12,693000000,base_link,0.00040330324485,-0.000493985461564,-0.695405916468,-0.718616973562,"(1.0, 0.0, 0.0, 0.0, 1.0, 0.0, 0.0, 0.0, 1.0)",0.00603637099266,0.00577504327521,0.01324915234,"(1.2184696791468346e-07, 0.0, 0.0, 0.0, 1.2184696791468346e-07, 0.0, 0.0, 0.0, 1.2184696791468346e-07)",0.0,0.0,0.0,"(-1.0, 0.0, 0.0, 0.0, 8.999999999999999e-08, 0.0, 0.0, 0.0, 8.999999999999999e-08)"
1970/01/01/01:00:12.713000,101,12,713000000,base_link,0.000519218479306,-0.000556225285035,-0.695458987253,-0.718565504358,"(1.0, 0.0, 0.0, 0.0, 1.0, 0.0, 0.0, 0.0, 1.0)",-0.002657730598,0.000184075906873,0.00671434961259,"(1.2184696791468346e-07, 0.0, 0.0, 0.0, 1.2184696791468346e-07, 0.0, 0.0, 0.0, 1.2184696791468346e-07)",0.0,0.0,0.0,"(-1.0, 0.0, 0.0, 0.0, 8.999999999999999e-08, 0.0, 0.0, 0.0, 8.999999999999999e-08)"
1970/01/01/01:00:12.733000,102,12,733000000,base_link,0.000550989249101,-0.000610989815449,-0.695489581914,-0.718535752634,"(1.0, 0.0, 0.0, 0.0, 1.0, 0.0, 0.0, 0.0, 1.0)",0.0046214829199,0.00817185081542,0.00157759885769,"(1.2184696791468346e-07, 0.0, 0.0, 0.0, 1.2184696791468346e-07, 0.0, 0.0, 0.0, 1.2184696791468346e-07)",0.0,0.0,0.0,"(-1.0, 0.0, 0.0, 0.0, 8.999999999999999e-08, 0.0, 0.0, 0.0, 8.999999999999999e-08)"
1970/01/01/01:00:12.753000,103,12,753000000,base_link,0.000533908039985,-0.000657651856047,-0.69553202379,-0.718494575163,"(1.0, 0.0, 0.0, 0.0, 1.0, 0.0, 0.0, 0.0, 1.0)",0.00117385666817,-0.000106206847704,0.00285357516259,"(1.2184696791468346e-07, 0.0, 0.0, 0.0, 1.2184696791468346e-07, 0.0, 0.0, 0.0, 1.2184696791468346e-07)",0.0,0.0,0.0,"(-1.0, 0.0, 0.0, 0.0, 8.999999999999999e-08, 0.0, 0.0, 0.0, 8.999999999999999e-08)"
1970/01/01/01:00:12.775000,104,12,775000000,base_link,0.000519810387342,-0.000663163240759,-0.695573996783,-0.718454035163,"(1.0, 0.0, 0.0, 0.0, 1.0, 0.0, 0.0, 0.0, 1.0)",-0.000518345274031,0.000189340178622,0.00649891234934,"(1.2184696791468346e-07, 0.0, 0.0, 0.0, 1.2184696791468346e-07, 0.0, 0.0, 0.0, 1.2184696791468346e-07)",0.0,0.0,0.0,"(-1.0, 0.0, 0.0, 0.0, 8.999999999999999e-08, 0.0, 0.0, 0.0, 8.999999999999999e-08)"
1970/01/01/01:00:12.793000,105,12,793000000,base_link,0.000475254948307,-0.000641133244591,-0.695606873959,-0.718422253805,"(1.0, 0.0, 0.0, 0.0, 1.0, 0.0, 0.0, 0.0, 1.0)",0.00467732036486,-0.00454840762541,0.00341379293241,"(1.2184696791468346e-07, 0.0, 0.0, 0.0, 1.2184696791468346e-07, 0.0, 0.0, 0.0, 1.2184696791468346e-07)",0.0,0.0,0.0,"(-1.0, 0.0, 0.0, 0.0, 8.999999999999999e-08, 0.0, 0.0, 0.0, 8.999999999999999e-08)"
1970/01/01/01:00:12.813000,106,12,813000000,base_link,0.000495423943999,-0.000657064917964,-0.69563169977,-0.718398270931,"(1.0, 0.0, 0.0, 0.0, 1.0, 0.0, 0.0, 0.0, 1.0)",-0.000913429888897,0.00298223085701,0.00191465928219,"(1.2184696791468346e-07, 0.0, 0.0, 0.0, 1.2184696791468346e-07, 0.0, 0.0, 0.0, 1.2184696791468346e-07)",0.0,0.0,0.0,"(-1.0, 0.0, 0.0, 0.0, 8.999999999999999e-08, 0.0, 0.0, 0.0, 8.999999999999999e-08)"
1970/01/01/01:00:12.833000,107,12,833000000,base_link,0.000351768618003,-0.00064618396713,-0.695599417918,-0.718429541259,"(1.0, 0.0, 0.0, 0.0, 1.0, 0.0, 0.0, 0.0, 1.0)",0.012442833744,-0.00670235976577,-0.00510559789836,"(1.2184696791468346e-07, 0.0, 0.0, 0.0, 1.2184696791468346e-07, 0.0, 0.0, 0.0, 1.2184696791468346e-07)",0.0,0.0,0.0,"(-1.0, 0.0, 0.0, 0.0, 8.999999999999999e-08, 0.0, 0.0, 0.0, 8.999999999999999e-08)"
1970/01/01/01:00:12.853000,108,12,853000000,base_link,0.000357589976527,-0.000657046751397,-0.69557141924,-0.718456528413,"(1.0, 0.0, 0.0, 0.0, 1.0, 0.0, 0.0, 0.0, 1.0)",-0.00315227452666,0.000179208509508,0.00203896127641,"(1.2184696791468346e-07, 0.0, 0.0, 0.0, 1.2184696791468346e-07, 0.0, 0.0, 0.0, 1.2184696791468346e-07)",0.0,0.0,0.0,"(-1.0, 0.0, 0.0, 0.0, 8.999999999999999e-08, 0.0, 0.0, 0.0, 8.999999999999999e-08)"
1970/01/01/01:00:12.873000,109,12,873000000,base_link,0.000356299661462,-0.000701948024051,-0.695638104774,-0.718391950221,"(1.0, 0.0, 0.0, 0.0, 1.0, 0.0, 0.0, 0.0, 1.0)",0.00131871155463,0.00140233547427,0.0103065520525,"(1.2184696791468346e-07, 0.0, 0.0, 0.0, 1.2184696791468346e-07, 0.0, 0.0, 0.0, 1.2184696791468346e-07)",0.0,0.0,0.0,"(-1.0, 0.0, 0.0, 0.0, 8.999999999999999e-08, 0.0, 0.0, 0.0, 8.999999999999999e-08)"
1970/01/01/01:00:12.893000,110,12,892000000,base_link,0.000335803554365,-0.000795697576447,-0.695652291139,-0.718378185324,"(1.0, 0.0, 0.0, 0.0, 1.0, 0.0, 0.0, 0.0, 1.0)",0.00684331450611,0.00522520579398,0.00376695580781,"(1.2184696791468346e-07, 0.0, 0.0, 0.0, 1.2184696791468346e-07, 0.0, 0.0, 0.0, 1.2184696791468346e-07)",0.0,0.0,0.0,"(-1.0, 0.0, 0.0, 0.0, 8.999999999999999e-08, 0.0, 0.0, 0.0, 8.999999999999999e-08)"
1970/01/01/01:00:12.913000,111,12,913000000,base_link,0.000388832809711,-0.000809899953101,-0.695602731714,-0.718426227463,"(1.0, 0.0, 0.0, 0.0, 1.0, 0.0, 0.0, 0.0, 1.0)",-0.00512425135821,0.00230493629351,-0.00549799297005,"(1.2184696791468346e-07, 0.0, 0.0, 0.0, 1.2184696791468346e-07, 0.0, 0.0, 0.0, 1.2184696791468346e-07)",0.0,0.0,0.0,"(-1.0, 0.0, 0.0, 0.0, 8.999999999999999e-08, 0.0, 0.0, 0.0, 8.999999999999999e-08)"
1970/01/01/01:00:12.933000,112,12,933000000,base_link,0.00040816833501,-0.000824253259925,-0.695595111037,-0.718433426671,"(1.0, 0.0, 0.0, 0.0, 1.0, 0.0, 0.0, 0.0, 1.0)",-0.000889129412826,0.000586815411225,-0.000437055481598,"(1.2184696791468346e-07, 0.0, 0.0, 0.0, 1.2184696791468346e-07, 0.0, 0.0, 0.0, 1.2184696791468346e-07)",0.0,0.0,0.0,"(-1.0, 0.0, 0.0, 0.0, 8.999999999999999e-08, 0.0, 0.0, 0.0, 8.999999999999999e-08)"
1970/01/01/01:00:12.953000,113,12,953000000,base_link,0.000343050178131,-0.000889410435567,-0.695598181171,-0.718430356537,"(1.0, 0.0, 0.0, 0.0, 1.0, 0.0, 0.0, 0.0, 1.0)",0.00622393237427,-0.00613415706903,0.00565033731982,"(1.2184696791468346e-07, 0.0, 0.0, 0.0, 1.2184696791468346e-07, 0.0, 0.0, 0.0, 1.2184696791468346e-07)",0.0,0.0,0.0,"(-1.0, 0.0, 0.0, 0.0, 8.999999999999999e-08, 0.0, 0.0, 0.0, 8.999999999999999e-08)"
1970/01/01/01:00:12.973000,114,12,973000000,base_link,0.00030084550118,-0.000933471302531,-0.69562620224,-0.718403346992,"(1.0, 0.0, 0.0, 0.0, 1.0, 0.0, 0.0, 0.0, 1.0)",0.0028767795302,-0.000716874201316,0.00468589039519,"(1.2184696791468346e-07, 0.0, 0.0, 0.0, 1.2184696791468346e-07, 0.0, 0.0, 0.0, 1.2184696791468346e-07)",0.0,0.0,0.0,"(-1.0, 0.0, 0.0, 0.0, 8.999999999999999e-08, 0.0, 0.0, 0.0, 8.999999999999999e-08)"
1970/01/01/01:00:12.993000,115,12,993000000,base_link,0.000227689129457,-0.000914945272489,-0.695602368197,-0.718426506686,"(1.0, 0.0, 0.0, 0.0, 1.0, 0.0, 0.0, 0.0, 1.0)",0.0032487406861,-0.0112427892163,-0.00117965962272,"(1.2184696791468346e-07, 0.0, 0.0, 0.0, 1.2184696791468346e-07, 0.0, 0.0, 0.0, 1.2184696791468346e-07)",0.0,0.0,0.0,"(-1.0, 0.0, 0.0, 0.0, 8.999999999999999e-08, 0.0, 0.0, 0.0, 8.999999999999999e-08)"
1970/01/01/01:00:13.013000,116,13,13000000,base_link,0.000239507101664,-0.000850012063719,-0.695658013891,-0.718372631159,"(1.0, 0.0, 0.0, 0.0, 1.0, 0.0, 0.0, 0.0, 1.0)",-0.00575156044215,-0.00505824806169,0.0111695956439,"(1.2184696791468346e-07, 0.0, 0.0, 0.0, 1.2184696791468346e-07, 0.0, 0.0, 0.0, 1.2184696791468346e-07)",0.0,0.0,0.0,"(-1.0, 0.0, 0.0, 0.0, 8.999999999999999e-08, 0.0, 0.0, 0.0, 8.999999999999999e-08)"
1970/01/01/01:00:13.033000,117,13,33000000,base_link,0.000333782810542,-0.000854778320754,-0.695683803811,-0.718347684176,"(1.0, 0.0, 0.0, 0.0, 1.0, 0.0, 0.0, 0.0, 1.0)",-0.00440645497292,0.00343864457682,0.00345024256967,"(1.2184696791468346e-07, 0.0, 0.0, 0.0, 1.2184696791468346e-07, 0.0, 0.0, 0.0, 1.2184696791468346e-07)",0.0,0.0,0.0,"(-1.0, 0.0, 0.0, 0.0, 8.999999999999999e-08, 0.0, 0.0, 0.0, 8.999999999999999e-08)"
1970/01/01/01:00:13.053000,118,13,53000000,base_link,0.000362196886372,-0.000899905391857,-0.695667703715,-0.718363194217,"(1.0, 0.0, 0.0, 0.0, 1.0, 0.0, 0.0, 0.0, 1.0)",0.00187703967094,0.00392666691914,-0.000684137514327,"(1.2184696791468346e-07, 0.0, 0.0, 0.0, 1.2184696791468346e-07, 0.0, 0.0, 0.0, 1.2184696791468346e-07)",0.0,0.0,0.0,"(-1.0, 0.0, 0.0, 0.0, 8.999999999999999e-08, 0.0, 0.0, 0.0, 8.999999999999999e-08)"
1970/01/01/01:00:13.074000,119,13,74000000,base_link,0.00033138200422,-0.000932457596738,-0.695736270052,-0.718296650928,"(1.0, 0.0, 0.0, 0.0, 1.0, 0.0, 0.0, 0.0, 1.0)",0.00495046330616,0.000356772099622,0.01153009478,"(1.2184696791468346e-07, 0.0, 0.0, 0.0, 1.2184696791468346e-07, 0.0, 0.0, 0.0, 1.2184696791468346e-07)",0.0,0.0,0.0,"(-1.0, 0.0, 0.0, 0.0, 8.999999999999999e-08, 0.0, 0.0, 0.0, 8.999999999999999e-08)"
1970/01/01/01:00:13.093000,120,13,93000000,base_link,0.000414750096357,-0.000985719709306,-0.695783672086,-0.718250597594,"(1.0, 0.0, 0.0, 0.0, 1.0, 0.0, 0.0, 0.0, 1.0)",-0.00401725107804,0.00885047204792,0.0100971646607,"(1.2184696791468346e-07, 0.0, 0.0, 0.0, 1.2184696791468346e-07, 0.0, 0.0, 0.0, 1.2184696791468346e-07)",0.0,0.0,0.0,"(-1.0, 0.0, 0.0, 0.0, 8.999999999999999e-08, 0.0, 0.0, 0.0, 8.999999999999999e-08)"
1970/01/01/01:00:13.113000,121,13,113000000,base_link,0.000411636004015,-0.00101751983578,-0.695836378037,-0.718199577516,"(1.0, 0.0, 0.0, 0.0, 1.0, 0.0, 0.0, 0.0, 1.0)",0.00164779101033,-0.00648773321882,0.010489766486,"(1.2184696791468346e-07, 0.0, 0.0, 0.0, 1.2184696791468346e-07, 0.0, 0.0, 0.0, 1.2184696791468346e-07)",0.0,0.0,0.0,"(-1.0, 0.0, 0.0, 0.0, 8.999999999999999e-08, 0.0, 0.0, 0.0, 8.999999999999999e-08)"
1970/01/01/01:00:13.133000,122,13,133000000,base_link,0.000362287868411,-0.000975743686089,-0.695870435325,-0.718166616047,"(1.0, 0.0, 0.0, 0.0, 1.0, 0.0, 0.0, 0.0, 1.0)",0.00320609635673,-0.00966686289757,0.00741597358137,"(1.2184696791468346e-07, 0.0, 0.0, 0.0, 1.2184696791468346e-07, 0.0, 0.0, 0.0, 1.2184696791468346e-07)",0.0,0.0,0.0,"(-1.0, 0.0, 0.0, 0.0, 8.999999999999999e-08, 0.0, 0.0, 0.0, 8.999999999999999e-08)"
1970/01/01/01:00:13.154000,123,13,153000000,base_link,0.000349527539593,-0.00100677343897,-0.695891548262,-0.718146177459,"(1.0, 0.0, 0.0, 0.0, 1.0, 0.0, 0.0, 0.0, 1.0)",0.00235317717306,-0.00214117998257,0.00628951471299,"(1.2184696791468346e-07, 0.0, 0.0, 0.0, 1.2184696791468346e-07, 0.0, 0.0, 0.0, 1.2184696791468346e-07)",0.0,0.0,0.0,"(-1.0, 0.0, 0.0, 0.0, 8.999999999999999e-08, 0.0, 0.0, 0.0, 8.999999999999999e-08)"
1970/01/01/01:00:13.177000,124,13,176000000,base_link,0.000334872537067,-0.0010153027428,-0.695879748461,-0.718157555791,"(1.0, 0.0, 0.0, 0.0, 1.0, 0.0, 0.0, 0.0, 1.0)",0.00245861778967,-0.000504173338413,-0.00243753637187,"(1.2184696791468346e-07, 0.0, 0.0, 0.0, 1.2184696791468346e-07, 0.0, 0.0, 0.0, 1.2184696791468346e-07)",0.0,0.0,0.0,"(-1.0, 0.0, 0.0, 0.0, 8.999999999999999e-08, 0.0, 0.0, 0.0, 8.999999999999999e-08)"
1970/01/01/01:00:13.193000,125,13,193000000,base_link,0.000322586504351,-0.00104910605877,-0.695925616086,-0.718113121159,"(1.0, 0.0, 0.0, 0.0, 1.0, 0.0, 0.0, 0.0, 1.0)",0.00391899002716,0.000231670681387,0.0103276455775,"(1.2184696791468346e-07, 0.0, 0.0, 0.0, 1.2184696791468346e-07, 0.0, 0.0, 0.0, 1.2184696791468346e-07)",0.0,0.0,0.0,"(-1.0, 0.0, 0.0, 0.0, 8.999999999999999e-08, 0.0, 0.0, 0.0, 8.999999999999999e-08)"
1970/01/01/01:00:13.213000,126,13,213000000,base_link,0.000359197216138,-0.00109811140137,-0.695974237744,-0.7180658482,"(1.0, 0.0, 0.0, 0.0, 1.0, 0.0, 0.0, 0.0, 1.0)",-0.00203836872242,0.002187483944,0.00522132776678,"(1.2184696791468346e-07, 0.0, 0.0, 0.0, 1.2184696791468346e-07, 0.0, 0.0, 0.0, 1.2184696791468346e-07)",0.0,0.0,0.0,"(-1.0, 0.0, 0.0, 0.0, 8.999999999999999e-08, 0.0, 0.0, 0.0, 8.999999999999999e-08)"
1970/01/01/01:00:13.233000,127,13,232000000,base_link,0.000249479379409,-0.00107331946439,-0.695984369452,-0.718056053668,"(1.0, 0.0, 0.0, 0.0, 1.0, 0.0, 0.0, 0.0, 1.0)",0.00749185262248,-0.0079749384895,0.00263740099035,"(1.2184696791468346e-07, 0.0, 0.0, 0.0, 1.2184696791468346e-07, 0.0, 0.0, 0.0, 1.2184696791468346e-07)",0.0,0.0,0.0,"(-1.0, 0.0, 0.0, 0.0, 8.999999999999999e-08, 0.0, 0.0, 0.0, 8.999999999999999e-08)"
1970/01/01/01:00:13.253000,128,13,252000000,base_link,0.000334866383792,-0.00106087836503,-0.695995824833,-0.718045104048,"(1.0, 0.0, 0.0, 0.0, 1.0, 0.0, 0.0, 0.0, 1.0)",-0.00827824510634,0.0048268372193,0.00611157063395,"(1.2184696791468346e-07, 0.0, 0.0, 0.0, 1.2184696791468346e-07, 0.0, 0.0, 0.0, 1.2184696791468346e-07)",0.0,0.0,0.0,"(-1.0, 0.0, 0.0, 0.0, 8.999999999999999e-08, 0.0, 0.0, 0.0, 8.999999999999999e-08)"
1970/01/01/01:00:13.277000,129,13,276000000,base_link,0.000313859842963,-0.00111447726137,-0.695980609162,-0.718059729663,"(1.0, 0.0, 0.0, 0.0, 1.0, 0.0, 0.0, 0.0, 1.0)",0.0108627006412,0.000385947641917,-0.00541076483205,"(1.2184696791468346e-07, 0.0, 0.0, 0.0, 1.2184696791468346e-07, 0.0, 0.0, 0.0, 1.2184696791468346e-07)",0.0,0.0,0.0,"(-1.0, 0.0, 0.0, 0.0, 8.999999999999999e-08, 0.0, 0.0, 0.0, 8.999999999999999e-08)"
1970/01/01/01:00:13.293000,130,13,293000000,base_link,0.000336596874122,-0.00110420433748,-0.69595614621,-0.718083433973,"(1.0, 0.0, 0.0, 0.0, 1.0, 0.0, 0.0, 0.0, 1.0)",-0.00445038825274,-0.000375671195798,-0.0029477418866,"(1.2184696791468346e-07, 0.0, 0.0, 0.0, 1.2184696791468346e-07, 0.0, 0.0, 0.0, 1.2184696791468346e-07)",0.0,0.0,0.0,"(-1.0, 0.0, 0.0, 0.0, 8.999999999999999e-08, 0.0, 0.0, 0.0, 8.999999999999999e-08)"
1970/01/01/01:00:13.313000,131,13,313000000,base_link,0.000324737393032,-0.00113525709825,-0.695950239065,-0.718089088236,"(1.0, 0.0, 0.0, 0.0, 1.0, 0.0, 0.0, 0.0, 1.0)",0.00283451518044,-0.00121416267939,-0.000852154742461,"(1.2184696791468346e-07, 0.0, 0.0, 0.0, 1.2184696791468346e-07, 0.0, 0.0, 0.0, 1.2184696791468346e-07)",0.0,0.0,0.0,"(-1.0, 0.0, 0.0, 0.0, 8.999999999999999e-08, 0.0, 0.0, 0.0, 8.999999999999999e-08)"
1970/01/01/01:00:13.333000,132,13,333000000,base_link,0.000395551877588,-0.00114437773389,-0.695905306574,-0.718132587735,"(1.0, 0.0, 0.0, 0.0, 1.0, 0.0, 0.0, 0.0, 1.0)",-0.00398820219561,0.00685694487765,-0.00407407665625,"(1.2184696791468346e-07, 0.0, 0.0, 0.0, 1.2184696791468346e-07, 0.0, 0.0, 0.0, 1.2184696791468346e-07)",0.0,0.0,0.0,"(-1.0, 0.0, 0.0, 0.0, 8.999999999999999e-08, 0.0, 0.0, 0.0, 8.999999999999999e-08)"
1970/01/01/01:00:13.353000,133,13,352000000,base_link,0.000483628418899,-0.00112230002926,-0.695867628608,-0.718169001295,"(1.0, 0.0, 0.0, 0.0, 1.0, 0.0, 0.0, 0.0, 1.0)",-0.0102893467993,0.00563749391586,-0.00656221341342,"(1.2184696791468346e-07, 0.0, 0.0, 0.0, 1.2184696791468346e-07, 0.0, 0.0, 0.0, 1.2184696791468346e-07)",0.0,0.0,0.0,"(-1.0, 0.0, 0.0, 0.0, 8.999999999999999e-08, 0.0, 0.0, 0.0, 8.999999999999999e-08)"
1970/01/01/01:00:13.376000,134,13,372000000,base_link,0.000450715187571,-0.00123142645187,-0.695859259825,-0.718177117197,"(1.0, 0.0, 0.0, 0.0, 1.0, 0.0, 0.0, 0.0, 1.0)",0.0105218365788,-0.00241243559867,-0.00130959576927,"(1.2184696791468346e-07, 0.0, 0.0, 0.0, 1.2184696791468346e-07, 0.0, 0.0, 0.0, 1.2184696791468346e-07)",0.0,0.0,0.0,"(-1.0, 0.0, 0.0, 0.0, 8.999999999999999e-08, 0.0, 0.0, 0.0, 8.999999999999999e-08)"
1970/01/01/01:00:13.393000,135,13,392000000,base_link,0.000452997250086,-0.00125800362069,-0.695846320742,-0.718189466224,"(1.0, 0.0, 0.0, 0.0, 1.0, 0.0, 0.0, 0.0, 1.0)",0.000235758488998,0.0014269601088,-0.00303223100491,"(1.2184696791468346e-07, 0.0, 0.0, 0.0, 1.2184696791468346e-07, 0.0, 0.0, 0.0, 1.2184696791468346e-07)",0.0,0.0,0.0,"(-1.0, 0.0, 0.0, 0.0, 8.999999999999999e-08, 0.0, 0.0, 0.0, 8.999999999999999e-08)"
1970/01/01/01:00:13.413000,136,13,413000000,base_link,0.000459573310907,-0.00123236895253,-0.695848073787,-0.718187881766,"(1.0, 0.0, 0.0, 0.0, 1.0, 0.0, 0.0, 0.0, 1.0)",-0.00102559383959,0.0022490255069,0.00257763476111,"(1.2184696791468346e-07, 0.0, 0.0, 0.0, 1.2184696791468346e-07, 0.0, 0.0, 0.0, 1.2184696791468346e-07)",0.0,0.0,0.0,"(-1.0, 0.0, 0.0, 0.0, 8.999999999999999e-08, 0.0, 0.0, 0.0, 8.999999999999999e-08)"
1970/01/01/01:00:13.433000,137,13,433000000,base_link,0.000508147594975,-0.00126689771702,-0.695861859758,-0.71817443297,"(1.0, 0.0, 0.0, 0.0, 1.0, 0.0, 0.0, 0.0, 1.0)",-0.0019212346524,0.0048072906211,0.0020228587091,"(1.2184696791468346e-07, 0.0, 0.0, 0.0, 1.2184696791468346e-07, 0.0, 0.0, 0.0, 1.2184696791468346e-07)",0.0,0.0,0.0,"(-1.0, 0.0, 0.0, 0.0, 8.999999999999999e-08, 0.0, 0.0, 0.0, 8.999999999999999e-08)"
1970/01/01/01:00:13.453000,138,13,453000000,base_link,0.000538602767768,-0.00131938721282,-0.695901684579,-0.718135703968,"(1.0, 0.0, 0.0, 0.0, 1.0, 0.0, 0.0, 0.0, 1.0)",0.00275021092966,0.00611007586122,0.00613497849554,"(1.2184696791468346e-07, 0.0, 0.0, 0.0, 1.2184696791468346e-07, 0.0, 0.0, 0.0, 1.2184696791468346e-07)",0.0,0.0,0.0,"(-1.0, 0.0, 0.0, 0.0, 8.999999999999999e-08, 0.0, 0.0, 0.0, 8.999999999999999e-08)"
1970/01/01/01:00:13.472000,139,13,472000000,base_link,0.000578208087228,-0.00130779226083,-0.695938224579,-0.718100344079,"(1.0, 0.0, 0.0, 0.0, 1.0, 0.0, 0.0, 0.0, 1.0)",-0.00723360525444,-0.00669060973451,0.00669758301228,"(1.2184696791468346e-07, 0.0, 0.0, 0.0, 1.2184696791468346e-07, 0.0, 0.0, 0.0, 1.2184696791468346e-07)",0.0,0.0,0.0,"(-1.0, 0.0, 0.0, 0.0, 8.999999999999999e-08, 0.0, 0.0, 0.0, 8.999999999999999e-08)"
1970/01/01/01:00:13.493000,140,13,493000000,base_link,0.000602615845804,-0.00122004964274,-0.69589843532,-0.71813903752,"(1.0, 0.0, 0.0, 0.0, 1.0, 0.0, 0.0, 0.0, 1.0)",-0.00252501480281,-0.0089187445119,-0.00628904486075,"(1.2184696791468346e-07, 0.0, 0.0, 0.0, 1.2184696791468346e-07, 0.0, 0.0, 0.0, 1.2184696791468346e-07)",0.0,0.0,0.0,"(-1.0, 0.0, 0.0, 0.0, 8.999999999999999e-08, 0.0, 0.0, 0.0, 8.999999999999999e-08)"
1970/01/01/01:00:13.513000,141,13,513000000,base_link,0.000526495509307,-0.00131236507041,-0.69595540864,-0.718083750074,"(1.0, 0.0, 0.0, 0.0, 1.0, 0.0, 0.0, 0.0, 1.0)",0.0165758021176,0.0019628717564,0.0135612431914,"(1.2184696791468346e-07, 0.0, 0.0, 0.0, 1.2184696791468346e-07, 0.0, 0.0, 0.0, 1.2184696791468346e-07)",0.0,0.0,0.0,"(-1.0, 0.0, 0.0, 0.0, 8.999999999999999e-08, 0.0, 0.0, 0.0, 8.999999999999999e-08)"
1970/01/01/01:00:13.533000,142,13,533000000,base_link,0.000546821526705,-0.00124054844575,-0.696004812649,-0.718035947645,"(1.0, 0.0, 0.0, 0.0, 1.0, 0.0, 0.0, 0.0, 1.0)",-0.00434589805081,-0.00665112584829,0.00426026014611,"(1.2184696791468346e-07, 0.0, 0.0, 0.0, 1.2184696791468346e-07, 0.0, 0.0, 0.0, 1.2184696791468346e-07)",0.0,0.0,0.0,"(-1.0, 0.0, 0.0, 0.0, 8.999999999999999e-08, 0.0, 0.0, 0.0, 8.999999999999999e-08)"
1970/01/01/01:00:13.553000,143,13,553000000,base_link,0.000614359052629,-0.00127165035041,-0.696061455379,-0.717980906495,"(1.0, 0.0, 0.0, 0.0, 1.0, 0.0, 0.0, 0.0, 1.0)",-0.00410445546731,0.00840057525784,0.0112773636356,"(1.2184696791468346e-07, 0.0, 0.0, 0.0, 1.2184696791468346e-07, 0.0, 0.0, 0.0, 1.2184696791468346e-07)",0.0,0.0,0.0,"(-1.0, 0.0, 0.0, 0.0, 8.999999999999999e-08, 0.0, 0.0, 0.0, 8.999999999999999e-08)"
1970/01/01/01:00:13.575000,144,13,574000000,base_link,0.000719019082321,-0.00129383883458,-0.696053427721,-0.717988428391,"(1.0, 0.0, 0.0, 0.0, 1.0, 0.0, 0.0, 0.0, 1.0)",-0.0086274407804,0.00647365441546,0.000150291947648,"(1.2184696791468346e-07, 0.0, 0.0, 0.0, 1.2184696791468346e-07, 0.0, 0.0, 0.0, 1.2184696791468346e-07)",0.0,0.0,0.0,"(-1.0, 0.0, 0.0, 0.0, 8.999999999999999e-08, 0.0, 0.0, 0.0, 8.999999999999999e-08)"
1970/01/01/01:00:13.593000,145,13,593000000,base_link,0.000715387250518,-0.00125849668531,-0.69610489495,-0.71793873133,"(1.0, 0.0, 0.0, 0.0, 1.0, 0.0, 0.0, 0.0, 1.0)",0.000659092562273,-0.00558084622025,0.0078307390213,"(1.2184696791468346e-07, 0.0, 0.0, 0.0, 1.2184696791468346e-07, 0.0, 0.0, 0.0, 1.2184696791468346e-07)",0.0,0.0,0.0,"(-1.0, 0.0, 0.0, 0.0, 8.999999999999999e-08, 0.0, 0.0, 0.0, 8.999999999999999e-08)"
1970/01/01/01:00:13.613000,146,13,613000000,base_link,0.000732286305194,-0.00133190466219,-0.696079376351,-0.717963322699,"(1.0, 0.0, 0.0, 0.0, 1.0, 0.0, 0.0, 0.0, 1.0)",0.00744911003858,0.0040001058951,-0.00189376890194,"(1.2184696791468346e-07, 0.0, 0.0, 0.0, 1.2184696791468346e-07, 0.0, 0.0, 0.0, 1.2184696791468346e-07)",0.0,0.0,0.0,"(-1.0, 0.0, 0.0, 0.0, 8.999999999999999e-08, 0.0, 0.0, 0.0, 8.999999999999999e-08)"
1970/01/01/01:00:13.633000,147,13,633000000,base_link,0.000679947657242,-0.0013793765016,-0.696112226526,-0.717931399754,"(1.0, 0.0, 0.0, 0.0, 1.0, 0.0, 0.0, 0.0, 1.0)",0.00591182522476,-0.00333882076666,0.00569368712604,"(1.2184696791468346e-07, 0.0, 0.0, 0.0, 1.2184696791468346e-07, 0.0, 0.0, 0.0, 1.2184696791468346e-07)",0.0,0.0,0.0,"(-1.0, 0.0, 0.0, 0.0, 8.999999999999999e-08, 0.0, 0.0, 0.0, 8.999999999999999e-08)"
1970/01/01/01:00:13.653000,148,13,653000000,base_link,0.000677815537079,-0.00143953149663,-0.696121878155,-0.717921916713,"(1.0, 0.0, 0.0, 0.0, 1.0, 0.0, 0.0, 0.0, 1.0)",0.00324850226752,0.00479750940576,0.00238756928593,"(1.2184696791468346e-07, 0.0, 0.0, 0.0, 1.2184696791468346e-07, 0.0, 0.0, 0.0, 1.2184696791468346e-07)",0.0,0.0,0.0,"(-1.0, 0.0, 0.0, 0.0, 8.999999999999999e-08, 0.0, 0.0, 0.0, 8.999999999999999e-08)"
1970/01/01/01:00:13.674000,149,13,674000000,base_link,0.000740900561267,-0.00141495222837,-0.696144059909,-0.717900325014,"(1.0, 0.0, 0.0, 0.0, 1.0, 0.0, 0.0, 0.0, 1.0)",-0.0111158760265,0.00649964436889,0.00561938760802,"(1.2184696791468346e-07, 0.0, 0.0, 0.0, 1.2184696791468346e-07, 0.0, 0.0, 0.0, 1.2184696791468346e-07)",0.0,0.0,0.0,"(-1.0, 0.0, 0.0, 0.0, 8.999999999999999e-08, 0.0, 0.0, 0.0, 8.999999999999999e-08)"
1970/01/01/01:00:13.692000,150,13,691000000,base_link,0.00077752713986,-0.00141202205516,-0.696125424417,-0.71791837045,"(1.0, 0.0, 0.0, 0.0, 1.0, 0.0, 0.0, 0.0, 1.0)",-0.00173665373586,-0.00259560230188,-0.00475851632655,"(1.2184696791468346e-07, 0.0, 0.0, 0.0, 1.2184696791468346e-07, 0.0, 0.0, 0.0, 1.2184696791468346e-07)",0.0,0.0,0.0,"(-1.0, 0.0, 0.0, 0.0, 8.999999999999999e-08, 0.0, 0.0, 0.0, 8.999999999999999e-08)"
1970/01/01/01:00:13.713000,151,13,713000000,base_link,0.000769331841572,-0.00137129935031,-0.696122457015,-0.717921506439,"(1.0, 0.0, 0.0, 0.0, 1.0, 0.0, 0.0, 0.0, 1.0)",-0.00268926192075,-0.00647195382044,-0.000396644318243,"(1.2184696791468346e-07, 0.0, 0.0, 0.0, 1.2184696791468346e-07, 0.0, 0.0, 0.0, 1.2184696791468346e-07)",0.0,0.0,0.0,"(-1.0, 0.0, 0.0, 0.0, 8.999999999999999e-08, 0.0, 0.0, 0.0, 8.999999999999999e-08)"
1970/01/01/01:00:13.733000,152,13,733000000,base_link,0.000830649640993,-0.00134384819003,-0.696181078013,-0.717864571315,"(1.0, 0.0, 0.0, 0.0, 1.0, 0.0, 0.0, 0.0, 1.0)",-0.0122747747228,0.00201529217884,0.00954498257488,"(1.2184696791468346e-07, 0.0, 0.0, 0.0, 1.2184696791468346e-07, 0.0, 0.0, 0.0, 1.2184696791468346e-07)",0.0,0.0,0.0,"(-1.0, 0.0, 0.0, 0.0, 8.999999999999999e-08, 0.0, 0.0, 0.0, 8.999999999999999e-08)"
1970/01/01/01:00:13.753000,153,13,753000000,base_link,0.000814668823736,-0.00130575443601,-0.696153336167,-0.717891470224,"(1.0, 0.0, 0.0, 0.0, 1.0, 0.0, 0.0, 0.0, 1.0)",-0.00323835411109,-0.00637965835631,-0.00808635540307,"(1.2184696791468346e-07, 0.0, 0.0, 0.0, 1.2184696791468346e-07, 0.0, 0.0, 0.0, 1.2184696791468346e-07)",0.0,0.0,0.0,"(-1.0, 0.0, 0.0, 0.0, 8.999999999999999e-08, 0.0, 0.0, 0.0, 8.999999999999999e-08)"
1970/01/01/01:00:13.775000,154,13,774000000,base_link,0.000875542723,-0.00129227368008,-0.696191886704,-0.717854099799,"(1.0, 0.0, 0.0, 0.0, 1.0, 0.0, 0.0, 0.0, 1.0)",-0.00251758727245,0.00675829965621,0.00341189536266,"(1.2184696791468346e-07, 0.0, 0.0, 0.0, 1.2184696791468346e-07, 0.0, 0.0, 0.0, 1.2184696791468346e-07)",0.0,0.0,0.0,"(-1.0, 0.0, 0.0, 0.0, 8.999999999999999e-08, 0.0, 0.0, 0.0, 8.999999999999999e-08)"
1970/01/01/01:00:13.793000,155,13,793000000,base_link,0.000835579381703,-0.00131739507453,-0.696279256463,-0.717769343145,"(1.0, 0.0, 0.0, 0.0, 1.0, 0.0, 0.0, 0.0, 1.0)",0.0063968943432,-0.0015149123501,0.0124412355945,"(1.2184696791468346e-07, 0.0, 0.0, 0.0, 1.2184696791468346e-07, 0.0, 0.0, 0.0, 1.2184696791468346e-07)",0.0,0.0,0.0,"(-1.0, 0.0, 0.0, 0.0, 8.999999999999999e-08, 0.0, 0.0, 0.0, 8.999999999999999e-08)"
1970/01/01/01:00:13.813000,156,13,813000000,base_link,0.000843389678408,-0.00136511226292,-0.696318213322,-0.717731566398,"(1.0, 0.0, 0.0, 0.0, 1.0, 0.0, 0.0, 0.0, 1.0)",-0.00201014033519,0.00234065088443,0.00148599222302,"(1.2184696791468346e-07, 0.0, 0.0, 0.0, 1.2184696791468346e-07, 0.0, 0.0, 0.0, 1.2184696791468346e-07)",0.0,0.0,0.0,"(-1.0, 0.0, 0.0, 0.0, 8.999999999999999e-08, 0.0, 0.0, 0.0, 8.999999999999999e-08)"
1970/01/01/01:00:13.833000,157,13,833000000,base_link,0.000817985315616,-0.00141596607822,-0.696311604827,-0.717737837718,"(1.0, 0.0, 0.0, 0.0, 1.0, 0.0, 0.0, 0.0, 1.0)",0.00617660023272,-0.00176718481816,-0.00281451968476,"(1.2184696791468346e-07, 0.0, 0.0, 0.0, 1.2184696791468346e-07, 0.0, 0.0, 0.0, 1.2184696791468346e-07)",0.0,0.0,0.0,"(-1.0, 0.0, 0.0, 0.0, 8.999999999999999e-08, 0.0, 0.0, 0.0, 8.999999999999999e-08)"
1970/01/01/01:00:13.853000,158,13,852000000,base_link,0.000852265067958,-0.00142257321411,-0.696308447107,-0.717740911145,"(1.0, 0.0, 0.0, 0.0, 1.0, 0.0, 0.0, 0.0, 1.0)",-0.00302207958885,0.00251176394522,-0.0012756770011,"(1.2184696791468346e-07, 0.0, 0.0, 0.0, 1.2184696791468346e-07, 0.0, 0.0, 0.0, 1.2184696791468346e-07)",0.0,0.0,0.0,"(-1.0, 0.0, 0.0, 0.0, 8.999999999999999e-08, 0.0, 0.0, 0.0, 8.999999999999999e-08)"
1970/01/01/01:00:13.875000,159,13,875000000,base_link,0.000879296447275,-0.00163336547032,-0.696340123097,-0.717709572329,"(1.0, 0.0, 0.0, 0.0, 1.0, 0.0, 0.0, 0.0, 1.0)",0.0092710852623,0.0127979824319,0.00776937510818,"(1.2184696791468346e-07, 0.0, 0.0, 0.0, 1.2184696791468346e-07, 0.0, 0.0, 0.0, 1.2184696791468346e-07)",0.0,0.0,0.0,"(-1.0, 0.0, 0.0, 0.0, 8.999999999999999e-08, 0.0, 0.0, 0.0, 8.999999999999999e-08)"
1970/01/01/01:00:13.893000,160,13,893000000,base_link,0.000897380779167,-0.00165109130704,-0.696313384215,-0.717735468274,"(1.0, 0.0, 0.0, 0.0, 1.0, 0.0, 0.0, 0.0, 1.0)",-0.00278861494735,0.00114548602141,-0.00425768503919,"(1.2184696791468346e-07, 0.0, 0.0, 0.0, 1.2184696791468346e-07, 0.0, 0.0, 0.0, 1.2184696791468346e-07)",0.0,0.0,0.0,"(-1.0, 0.0, 0.0, 0.0, 8.999999999999999e-08, 0.0, 0.0, 0.0, 8.999999999999999e-08)"
1970/01/01/01:00:13.913000,161,13,913000000,base_link,0.0008496821535,-0.00172365081107,-0.696311160968,-0.717737522933,"(1.0, 0.0, 0.0, 0.0, 1.0, 0.0, 0.0, 0.0, 1.0)",0.00474040023983,-0.000310026865918,-0.000772897503339,"(1.2184696791468346e-07, 0.0, 0.0, 0.0, 1.2184696791468346e-07, 0.0, 0.0, 0.0, 1.2184696791468346e-07)",0.0,0.0,0.0,"(-1.0, 0.0, 0.0, 0.0, 8.999999999999999e-08, 0.0, 0.0, 0.0, 8.999999999999999e-08)"
1970/01/01/01:00:13.933000,162,13,933000000,base_link,0.000900700213919,-0.00173342414663,-0.696366713149,-0.717683572333,"(1.0, 0.0, 0.0, 0.0, 1.0, 0.0, 0.0, 0.0, 1.0)",0.00244653550908,0.00803862139583,0.00995470304042,"(1.2184696791468346e-07, 0.0, 0.0, 0.0, 1.2184696791468346e-07, 0.0, 0.0, 0.0, 1.2184696791468346e-07)",0.0,0.0,0.0,"(-1.0, 0.0, 0.0, 0.0, 8.999999999999999e-08, 0.0, 0.0, 0.0, 8.999999999999999e-08)"
1970/01/01/01:00:13.953000,163,13,953000000,base_link,0.000908185642387,-0.00172771563589,-0.696406703264,-0.717644678036,"(1.0, 0.0, 0.0, 0.0, 1.0, 0.0, 0.0, 0.0, 1.0)",-0.00090704660397,-0.00291838939302,0.00268477760255,"(1.2184696791468346e-07, 0.0, 0.0, 0.0, 1.2184696791468346e-07, 0.0, 0.0, 0.0, 1.2184696791468346e-07)",0.0,0.0,0.0,"(-1.0, 0.0, 0.0, 0.0, 8.999999999999999e-08, 0.0, 0.0, 0.0, 8.999999999999999e-08)"
1970/01/01/01:00:13.974000,164,13,974000000,base_link,0.000831903262782,-0.00176355054108,-0.696432661113,-0.717619563124,"(1.0, 0.0, 0.0, 0.0, 1.0, 0.0, 0.0, 0.0, 1.0)",0.00762166036293,-0.00409774668515,-0.000389669672586,"(1.2184696791468346e-07, 0.0, 0.0, 0.0, 1.2184696791468346e-07, 0.0, 0.0, 0.0, 1.2184696791468346e-07)",0.0,0.0,0.0,"(-1.0, 0.0, 0.0, 0.0, 8.999999999999999e-08, 0.0, 0.0, 0.0, 8.999999999999999e-08)"
1970/01/01/01:00:13.995000,165,13,991000000,base_link,0.000891281751525,-0.00179468965351,-0.696449827393,-0.717602818313,"(1.0, 0.0, 0.0, 0.0, 1.0, 0.0, 0.0, 0.0, 1.0)",-0.00545090343803,0.0090703535825,0.000161840434885,"(1.2184696791468346e-07, 0.0, 0.0, 0.0, 1.2184696791468346e-07, 0.0, 0.0, 0.0, 1.2184696791468346e-07)",0.0,0.0,0.0,"(-1.0, 0.0, 0.0, 0.0, 8.999999999999999e-08, 0.0, 0.0, 0.0, 8.999999999999999e-08)"
1970/01/01/01:00:14.014000,166,14,13000000,base_link,0.000901885264761,-0.00182764737775,-0.696458472765,-0.717594341528,"(1.0, 0.0, 0.0, 0.0, 1.0, 0.0, 0.0, 0.0, 1.0)",0.000948307337239,0.00233006360941,-0.00176959496457,"(1.2184696791468346e-07, 0.0, 0.0, 0.0, 1.2184696791468346e-07, 0.0, 0.0, 0.0, 1.2184696791468346e-07)",0.0,0.0,0.0,"(-1.0, 0.0, 0.0, 0.0, 8.999999999999999e-08, 0.0, 0.0, 0.0, 8.999999999999999e-08)"
1970/01/01/01:00:14.033000,167,14,33000000,base_link,0.000948955392014,-0.00180574748013,-0.696413905765,-0.717637475535,"(1.0, 0.0, 0.0, 0.0, 1.0, 0.0, 0.0, 0.0, 1.0)",-0.00913134776056,-0.00132995541207,-0.0096178771928,"(1.2184696791468346e-07, 0.0, 0.0, 0.0, 1.2184696791468346e-07, 0.0, 0.0, 0.0, 1.2184696791468346e-07)",0.0,0.0,0.0,"(-1.0, 0.0, 0.0, 0.0, 8.999999999999999e-08, 0.0, 0.0, 0.0, 8.999999999999999e-08)"
1970/01/01/01:00:14.053000,168,14,53000000,base_link,0.000920883779908,-0.00178909256026,-0.696475584386,-0.71757773567,"(1.0, 0.0, 0.0, 0.0, 1.0, 0.0, 0.0, 0.0, 1.0)",0.00396779738367,-0.00632144045085,0.0109759336337,"(1.2184696791468346e-07, 0.0, 0.0, 0.0, 1.2184696791468346e-07, 0.0, 0.0, 0.0, 1.2184696791468346e-07)",0.0,0.0,0.0,"(-1.0, 0.0, 0.0, 0.0, 8.999999999999999e-08, 0.0, 0.0, 0.0, 8.999999999999999e-08)"
1970/01/01/01:00:14.076000,169,14,74000000,base_link,0.000905454822948,-0.00173699337555,-0.696541488886,-0.717513854218,"(1.0, 0.0, 0.0, 0.0, 1.0, 0.0, 0.0, 0.0, 1.0)",-0.00379103189334,-0.00950698461384,0.00690438225865,"(1.2184696791468346e-07, 0.0, 0.0, 0.0, 1.2184696791468346e-07, 0.0, 0.0, 0.0, 1.2184696791468346e-07)",0.0,0.0,0.0,"(-1.0, 0.0, 0.0, 0.0, 8.999999999999999e-08, 0.0, 0.0, 0.0, 8.999999999999999e-08)"
1970/01/01/01:00:14.093000,170,14,93000000,base_link,0.000947896287809,-0.00169714871632,-0.696589648904,-0.717467127192,"(1.0, 0.0, 0.0, 0.0, 1.0, 0.0, 0.0, 0.0, 1.0)",-0.00930271949619,-0.00402824720368,0.00543988356367,"(1.2184696791468346e-07, 0.0, 0.0, 0.0, 1.2184696791468346e-07, 0.0, 0.0, 0.0, 1.2184696791468346e-07)",0.0,0.0,0.0,"(-1.0, 0.0, 0.0, 0.0, 8.999999999999999e-08, 0.0, 0.0, 0.0, 8.999999999999999e-08)"
1970/01/01/01:00:14.113000,171,14,113000000,base_link,0.000943406372512,-0.00168083735088,-0.696629218868,-0.71742873734,"(1.0, 0.0, 0.0, 0.0, 1.0, 0.0, 0.0, 0.0, 1.0)",0.000795167637989,-0.00508403917775,0.00407829601318,"(1.2184696791468346e-07, 0.0, 0.0, 0.0, 1.2184696791468346e-07, 0.0, 0.0, 0.0, 1.2184696791468346e-07)",0.0,0.0,0.0,"(-1.0, 0.0, 0.0, 0.0, 8.999999999999999e-08, 0.0, 0.0, 0.0, 8.999999999999999e-08)"
1970/01/01/01:00:14.133000,172,14,132000000,base_link,0.00098489957444,-0.00168390159963,-0.696685733182,-0.7173739089,"(1.0, 0.0, 0.0, 0.0, 1.0, 0.0, 0.0, 0.0, 1.0)",-0.00161601160653,0.0050875111483,0.00109569821507,"(1.2184696791468346e-07, 0.0, 0.0, 0.0, 1.2184696791468346e-07, 0.0, 0.0, 0.0, 1.2184696791468346e-07)",0.0,0.0,0.0,"(-1.0, 0.0, 0.0, 0.0, 8.999999999999999e-08, 0.0, 0.0, 0.0, 8.999999999999999e-08)"
1970/01/01/01:00:14.153000,173,14,153000000,base_link,0.000951728934527,-0.00168055561731,-0.696613457922,-0.717444161111,"(1.0, 0.0, 0.0, 0.0, 1.0, 0.0, 0.0, 0.0, 1.0)",-0.00091125338804,-0.00564498594031,-0.0137897673994,"(1.2184696791468346e-07, 0.0, 0.0, 0.0, 1.2184696791468346e-07, 0.0, 0.0, 0.0, 1.2184696791468346e-07)",0.0,0.0,0.0,"(-1.0, 0.0, 0.0, 0.0, 8.999999999999999e-08, 0.0, 0.0, 0.0, 8.999999999999999e-08)"
1970/01/01/01:00:14.175000,174,14,175000000,base_link,0.000992433323611,-0.00180619677213,-0.696647498088,-0.717410711002,"(1.0, 0.0, 0.0, 0.0, 1.0, 0.0, 0.0, 0.0, 1.0)",0.00628129392862,0.0133952042088,0.00504252314568,"(1.2184696791468346e-07, 0.0, 0.0, 0.0, 1.2184696791468346e-07, 0.0, 0.0, 0.0, 1.2184696791468346e-07)",0.0,0.0,0.0,"(-1.0, 0.0, 0.0, 0.0, 8.999999999999999e-08, 0.0, 0.0, 0.0, 8.999999999999999e-08)"
1970/01/01/01:00:14.193000,175,14,193000000,base_link,0.00100281688298,-0.00182886622015,-0.696632251465,-0.717425367568,"(1.0, 0.0, 0.0, 0.0, 1.0, 0.0, 0.0, 0.0, 1.0)",0.00294980360195,0.00171907816548,-0.00414860527962,"(1.2184696791468346e-07, 0.0, 0.0, 0.0, 1.2184696791468346e-07, 0.0, 0.0, 0.0, 1.2184696791468346e-07)",0.0,0.0,0.0,"(-1.0, 0.0, 0.0, 0.0, 8.999999999999999e-08, 0.0, 0.0, 0.0, 8.999999999999999e-08)"
1970/01/01/01:00:14.213000,176,14,212000000,base_link,0.00101348382229,-0.00194320024809,-0.69664584119,-0.717412030725,"(1.0, 0.0, 0.0, 0.0, 1.0, 0.0, 0.0, 0.0, 1.0)",-0.000440830830485,0.00197386578657,-0.00155741942581,"(1.2184696791468346e-07, 0.0, 0.0, 0.0, 1.2184696791468346e-07, 0.0, 0.0, 0.0, 1.2184696791468346e-07)",0.0,0.0,0.0,"(-1.0, 0.0, 0.0, 0.0, 8.999999999999999e-08, 0.0, 0.0, 0.0, 8.999999999999999e-08)"
1970/01/01/01:00:14.232000,177,14,232000000,base_link,0.000996367015753,-0.00188742276303,-0.696671064762,-0.71738765009,"(1.0, 0.0, 0.0, 0.0, 1.0, 0.0, 0.0, 0.0, 1.0)",-0.00239950814284,-0.000887462636456,0.00506452051923,"(1.2184696791468346e-07, 0.0, 0.0, 0.0, 1.2184696791468346e-07, 0.0, 0.0, 0.0, 1.2184696791468346e-07)",0.0,0.0,0.0,"(-1.0, 0.0, 0.0, 0.0, 8.999999999999999e-08, 0.0, 0.0, 0.0, 8.999999999999999e-08)"
1970/01/01/01:00:14.253000,178,14,253000000,base_link,0.00104823723276,-0.00200413039117,-0.696733970909,-0.717326008348,"(1.0, 0.0, 0.0, 0.0, 1.0, 0.0, 0.0, 0.0, 1.0)",0.00543250935152,0.00748335383832,0.0064910040237,"(1.2184696791468346e-07, 0.0, 0.0, 0.0, 1.2184696791468346e-07, 0.0, 0.0, 0.0, 1.2184696791468346e-07)",0.0,0.0,0.0,"(-1.0, 0.0, 0.0, 0.0, 8.999999999999999e-08, 0.0, 0.0, 0.0, 8.999999999999999e-08)"
1970/01/01/01:00:14.276000,179,14,276000000,base_link,0.00111340535671,-0.00202411273065,-0.696728870481,-0.717330940188,"(1.0, 0.0, 0.0, 0.0, 1.0, 0.0, 0.0, 0.0, 1.0)",-0.00666035246104,0.00462830858305,-0.00664241984487,"(1.2184696791468346e-07, 0.0, 0.0, 0.0, 1.2184696791468346e-07, 0.0, 0.0, 0.0, 1.2184696791468346e-07)",0.0,0.0,0.0,"(-1.0, 0.0, 0.0, 0.0, 8.999999999999999e-08, 0.0, 0.0, 0.0, 8.999999999999999e-08)"
1970/01/01/01:00:14.293000,180,14,293000000,base_link,0.00115217605332,-0.0020459004699,-0.696727791786,-0.717331850297,"(1.0, 0.0, 0.0, 0.0, 1.0, 0.0, 0.0, 0.0, 1.0)",-0.000993409659714,0.00510550010949,-0.00309302541427,"(1.2184696791468346e-07, 0.0, 0.0, 0.0, 1.2184696791468346e-07, 0.0, 0.0, 0.0, 1.2184696791468346e-07)",0.0,0.0,0.0,"(-1.0, 0.0, 0.0, 0.0, 8.999999999999999e-08, 0.0, 0.0, 0.0, 8.999999999999999e-08)"
1970/01/01/01:00:14.314000,181,14,313000000,base_link,0.00122312442821,-0.00211811802469,-0.696682635389,-0.717375405113,"(1.0, 0.0, 0.0, 0.0, 1.0, 0.0, 0.0, 0.0, 1.0)",-0.000674315320794,0.00737401191145,-0.00307814287953,"(1.2184696791468346e-07, 0.0, 0.0, 0.0, 1.2184696791468346e-07, 0.0, 0.0, 0.0, 1.2184696791468346e-07)",0.0,0.0,0.0,"(-1.0, 0.0, 0.0, 0.0, 8.999999999999999e-08, 0.0, 0.0, 0.0, 8.999999999999999e-08)"
1970/01/01/01:00:14.330000,182,14,330000000,base_link,0.0011760371788,-0.00209668240096,-0.696705401931,-0.717353481508,"(1.0, 0.0, 0.0, 0.0, 1.0, 0.0, 0.0, 0.0, 1.0)",0.00477958004922,-0.00582092814147,0.00267537310719,"(1.2184696791468346e-07, 0.0, 0.0, 0.0, 1.2184696791468346e-07, 0.0, 0.0, 0.0, 1.2184696791468346e-07)",0.0,0.0,0.0,"(-1.0, 0.0, 0.0, 0.0, 8.999999999999999e-08, 0.0, 0.0, 0.0, 8.999999999999999e-08)"
1970/01/01/01:00:14.352000,183,14,353000000,base_link,0.00119403215443,-0.00216359949564,-0.696665758869,-0.717391691578,"(1.0, 0.0, 0.0, 0.0, 1.0, 0.0, 0.0, 0.0, 1.0)",0.000358907040209,0.00327169476077,-0.0132270380855,"(1.2184696791468346e-07, 0.0, 0.0, 0.0, 1.2184696791468346e-07, 0.0, 0.0, 0.0, 1.2184696791468346e-07)",0.0,0.0,0.0,"(-1.0, 0.0, 0.0, 0.0, 8.999999999999999e-08, 0.0, 0.0, 0.0, 8.999999999999999e-08)"
1970/01/01/01:00:14.374000,184,14,374000000,base_link,0.00119140238042,-0.00218827404706,-0.696700041379,-0.717358336298,"(1.0, 0.0, 0.0, 0.0, 1.0, 0.0, 0.0, 0.0, 1.0)",0.0013405289501,0.00425598211586,0.00567277474329,"(1.2184696791468346e-07, 0.0, 0.0, 0.0, 1.2184696791468346e-07, 0.0, 0.0, 0.0, 1.2184696791468346e-07)",0.0,0.0,0.0,"(-1.0, 0.0, 0.0, 0.0, 8.999999999999999e-08, 0.0, 0.0, 0.0, 8.999999999999999e-08)"
1970/01/01/01:00:14.393000,185,14,393000000,base_link,0.00120094510193,-0.00225909482895,-0.696737208972,-0.717322011642,"(1.0, 0.0, 0.0, 0.0, 1.0, 0.0, 0.0, 0.0, 1.0)",0.00326428306289,0.00906665809453,0.00581889040768,"(1.2184696791468346e-07, 0.0, 0.0, 0.0, 1.2184696791468346e-07, 0.0, 0.0, 0.0, 1.2184696791468346e-07)",0.0,0.0,0.0,"(-1.0, 0.0, 0.0, 0.0, 8.999999999999999e-08, 0.0, 0.0, 0.0, 8.999999999999999e-08)"
1970/01/01/01:00:14.413000,186,14,413000000,base_link,0.00124634693015,-0.00224003115905,-0.696734544501,-0.717324507525,"(1.0, 0.0, 0.0, 0.0, 1.0, 0.0, 0.0, 0.0, 1.0)",-0.00465527456254,-0.00521439267322,-0.00585108296946,"(1.2184696791468346e-07, 0.0, 0.0, 0.0, 1.2184696791468346e-07, 0.0, 0.0, 0.0, 1.2184696791468346e-07)",0.0,0.0,0.0,"(-1.0, 0.0, 0.0, 0.0, 8.999999999999999e-08, 0.0, 0.0, 0.0, 8.999999999999999e-08)"
1970/01/01/01:00:14.433000,187,14,433000000,base_link,0.00125895435316,-0.0022404355877,-0.69670531171,-0.717352897379,"(1.0, 0.0, 0.0, 0.0, 1.0, 0.0, 0.0, 0.0, 1.0)",-0.000279289932223,-0.000383403676096,-0.0043571498245,"(1.2184696791468346e-07, 0.0, 0.0, 0.0, 1.2184696791468346e-07, 0.0, 0.0, 0.0, 1.2184696791468346e-07)",0.0,0.0,0.0,"(-1.0, 0.0, 0.0, 0.0, 8.999999999999999e-08, 0.0, 0.0, 0.0, 8.999999999999999e-08)"
1970/01/01/01:00:14.454000,188,14,453000000,base_link,0.00124601588805,-0.00229598023611,-0.696675056858,-0.717382140707,"(1.0, 0.0, 0.0, 0.0, 1.0, 0.0, 0.0, 0.0, 1.0)",0.010052472353,0.000773347797804,-0.00341609236784,"(1.2184696791468346e-07, 0.0, 0.0, 0.0, 1.2184696791468346e-07, 0.0, 0.0, 0.0, 1.2184696791468346e-07)",0.0,0.0,0.0,"(-1.0, 0.0, 0.0, 0.0, 8.999999999999999e-08, 0.0, 0.0, 0.0, 8.999999999999999e-08)"
1970/01/01/01:00:14.474000,189,14,474000000,base_link,0.00125308548683,-0.00233794322723,-0.696623332797,-0.717432178894,"(1.0, 0.0, 0.0, 0.0, 1.0, 0.0, 0.0, 0.0, 1.0)",0.00046122240019,0.00113357184455,-0.00745058851317,"(1.2184696791468346e-07, 0.0, 0.0, 0.0, 1.2184696791468346e-07, 0.0, 0.0, 0.0, 1.2184696791468346e-07)",0.0,0.0,0.0,"(-1.0, 0.0, 0.0, 0.0, 8.999999999999999e-08, 0.0, 0.0, 0.0, 8.999999999999999e-08)"
1970/01/01/01:00:14.493000,190,14,493000000,base_link,0.00124934022073,-0.00233716297546,-0.696592274521,-0.717462394233,"(1.0, 0.0, 0.0, 0.0, 1.0, 0.0, 0.0, 0.0, 1.0)",0.000472387677291,-0.00355992931873,-0.00621571065858,"(1.2184696791468346e-07, 0.0, 0.0, 0.0, 1.2184696791468346e-07, 0.0, 0.0, 0.0, 1.2184696791468346e-07)",0.0,0.0,0.0,"(-1.0, 0.0, 0.0, 0.0, 8.999999999999999e-08, 0.0, 0.0, 0.0, 8.999999999999999e-08)"
1970/01/01/01:00:14.513000,191,14,513000000,base_link,0.00134880575424,-0.00238961476959,-0.6966186624,-0.717436512117,"(1.0, 0.0, 0.0, 0.0, 1.0, 0.0, 0.0, 0.0, 1.0)",-0.00293343514204,0.00985600240529,0.0018882578006,"(1.2184696791468346e-07, 0.0, 0.0, 0.0, 1.2184696791468346e-07, 0.0, 0.0, 0.0, 1.2184696791468346e-07)",0.0,0.0,0.0,"(-1.0, 0.0, 0.0, 0.0, 8.999999999999999e-08, 0.0, 0.0, 0.0, 8.999999999999999e-08)"
1970/01/01/01:00:14.533000,192,14,533000000,base_link,0.00126651711945,-0.00238268972134,-0.69655697456,-0.717496429789,"(1.0, 0.0, 0.0, 0.0, 1.0, 0.0, 0.0, 0.0, 1.0)",0.00748606957495,-0.00692410953343,-0.0117444116622,"(1.2184696791468346e-07, 0.0, 0.0, 0.0, 1.2184696791468346e-07, 0.0, 0.0, 0.0, 1.2184696791468346e-07)",0.0,0.0,0.0,"(-1.0, 0.0, 0.0, 0.0, 8.999999999999999e-08, 0.0, 0.0, 0.0, 8.999999999999999e-08)"
1970/01/01/01:00:14.553000,193,14,552000000,base_link,0.00125963364182,-0.00245713459713,-0.696539537618,-0.717513192381,"(1.0, 0.0, 0.0, 0.0, 1.0, 0.0, 0.0, 0.0, 1.0)",0.00461002718657,0.00351471523754,3.3465330489e-05,"(1.2184696791468346e-07, 0.0, 0.0, 0.0, 1.2184696791468346e-07, 0.0, 0.0, 0.0, 1.2184696791468346e-07)",0.0,0.0,0.0,"(-1.0, 0.0, 0.0, 0.0, 8.999999999999999e-08, 0.0, 0.0, 0.0, 8.999999999999999e-08)"
1970/01/01/01:00:14.575000,194,14,572000000,base_link,0.00126341051805,-0.00245649173422,-0.69649375758,-0.71755762372,"(1.0, 0.0, 0.0, 0.0, 1.0, 0.0, 0.0, 0.0, 1.0)",-0.00106842257082,-0.000480050250189,-0.00206733634695,"(1.2184696791468346e-07, 0.0, 0.0, 0.0, 1.2184696791468346e-07, 0.0, 0.0, 0.0, 1.2184696791468346e-07)",0.0,0.0,0.0,"(-1.0, 0.0, 0.0, 0.0, 8.999999999999999e-08, 0.0, 0.0, 0.0, 8.999999999999999e-08)"
1970/01/01/01:00:14.593000,195,14,593000000,base_link,0.00123117982695,-0.00244565460232,-0.696514152045,-0.717537903605,"(1.0, 0.0, 0.0, 0.0, 1.0, 0.0, 0.0, 0.0, 1.0)",0.00514101516455,-0.00443078204989,-0.00951217673719,"(1.2184696791468346e-07, 0.0, 0.0, 0.0, 1.2184696791468346e-07, 0.0, 0.0, 0.0, 1.2184696791468346e-07)",0.0,0.0,0.0,"(-1.0, 0.0, 0.0, 0.0, 8.999999999999999e-08, 0.0, 0.0, 0.0, 8.999999999999999e-08)"
1970/01/01/01:00:14.613000,196,14,613000000,base_link,0.00123604079092,-0.00247042122649,-0.696461631145,-0.717588738631,"(1.0, 0.0, 0.0, 0.0, 1.0, 0.0, 0.0, 0.0, 1.0)",0.00156844092999,0.00157472584397,-0.00353968702257,"(1.2184696791468346e-07, 0.0, 0.0, 0.0, 1.2184696791468346e-07, 0.0, 0.0, 0.0, 1.2184696791468346e-07)",0.0,0.0,0.0,"(-1.0, 0.0, 0.0, 0.0, 8.999999999999999e-08, 0.0, 0.0, 0.0, 8.999999999999999e-08)"
1970/01/01/01:00:14.636000,197,14,633000000,base_link,0.00118879215694,-0.0025218917893,-0.696482655178,-0.71756822036,"(1.0, 0.0, 0.0, 0.0, 1.0, 0.0, 0.0, 0.0, 1.0)",0.00725160352886,-0.00194322678726,0.00336506264284,"(1.2184696791468346e-07, 0.0, 0.0, 0.0, 1.2184696791468346e-07, 0.0, 0.0, 0.0, 1.2184696791468346e-07)",0.0,0.0,0.0,"(-1.0, 0.0, 0.0, 0.0, 8.999999999999999e-08, 0.0, 0.0, 0.0, 8.999999999999999e-08)"
1970/01/01/01:00:14.653000,198,14,653000000,base_link,0.00129853917542,-0.00250010260949,-0.696483170818,-0.71756770472,"(1.0, 0.0, 0.0, 0.0, 1.0, 0.0, 0.0, 0.0, 1.0)",-0.0123704727739,0.0073803588748,-0.00169858464506,"(1.2184696791468346e-07, 0.0, 0.0, 0.0, 1.2184696791468346e-07, 0.0, 0.0, 0.0, 1.2184696791468346e-07)",0.0,0.0,0.0,"(-1.0, 0.0, 0.0, 0.0, 8.999999999999999e-08, 0.0, 0.0, 0.0, 8.999999999999999e-08)"
1970/01/01/01:00:14.675000,199,14,675000000,base_link,0.00138298635447,-0.00257760074457,-0.69646875462,-0.717581109393,"(1.0, 0.0, 0.0, 0.0, 1.0, 0.0, 0.0, 0.0, 1.0)",0.00366660789587,0.0118673918769,-0.000496197200846,"(1.2184696791468346e-07, 0.0, 0.0, 0.0, 1.2184696791468346e-07, 0.0, 0.0, 0.0, 1.2184696791468346e-07)",0.0,0.0,0.0,"(-1.0, 0.0, 0.0, 0.0, 8.999999999999999e-08, 0.0, 0.0, 0.0, 8.999999999999999e-08)"
1970/01/01/01:00:14.693000,200,14,693000000,base_link,0.00132649801178,-0.00257888198407,-0.696529388789,-0.717522498273,"(1.0, 0.0, 0.0, 0.0, 1.0, 0.0, 0.0, 0.0, 1.0)",0.00264344410971,-0.0125877298415,0.00719229085371,"(1.2184696791468346e-07, 0.0, 0.0, 0.0, 1.2184696791468346e-07, 0.0, 0.0, 0.0, 1.2184696791468346e-07)",0.0,0.0,0.0,"(-1.0, 0.0, 0.0, 0.0, 8.999999999999999e-08, 0.0, 0.0, 0.0, 8.999999999999999e-08)"
1970/01/01/01:00:14.712000,201,14,713000000,base_link,0.0013751705013,-0.00264066584779,-0.696617681827,-0.717436481165,"(1.0, 0.0, 0.0, 0.0, 1.0, 0.0, 0.0, 0.0, 1.0)",0.000390738830902,0.00998949632049,0.0123346541077,"(1.2184696791468346e-07, 0.0, 0.0, 0.0, 1.2184696791468346e-07, 0.0, 0.0, 0.0, 1.2184696791468346e-07)",0.0,0.0,0.0,"(-1.0, 0.0, 0.0, 0.0, 8.999999999999999e-08, 0.0, 0.0, 0.0, 8.999999999999999e-08)"
1970/01/01/01:00:14.734000,202,14,733000000,base_link,0.00136673368181,-0.00266333710681,-0.696643951167,-0.717410801881,"(1.0, 0.0, 0.0, 0.0, 1.0, 0.0, 0.0, 0.0, 1.0)",0.00105996546336,-0.00219968752936,-0.001278896234,"(1.2184696791468346e-07, 0.0, 0.0, 0.0, 1.2184696791468346e-07, 0.0, 0.0, 0.0, 1.2184696791468346e-07)",0.0,0.0,0.0,"(-1.0, 0.0, 0.0, 0.0, 8.999999999999999e-08, 0.0, 0.0, 0.0, 8.999999999999999e-08)"
1970/01/01/01:00:14.754000,203,14,753000000,base_link,0.00134845540856,-0.00263577047487,-0.696667851064,-0.717387829214,"(1.0, 0.0, 0.0, 0.0, 1.0, 0.0, 0.0, 0.0, 1.0)",0.0010894095758,-0.00177529908251,0.00114191893954,"(1.2184696791468346e-07, 0.0, 0.0, 0.0, 1.2184696791468346e-07, 0.0, 0.0, 0.0, 1.2184696791468346e-07)",0.0,0.0,0.0,"(-1.0, 0.0, 0.0, 0.0, 8.999999999999999e-08, 0.0, 0.0, 0.0, 8.999999999999999e-08)"
1970/01/01/01:00:14.773000,204,14,773000000,base_link,0.0013238091334,-0.00257046253369,-0.696656333121,-0.71739917857,"(1.0, 0.0, 0.0, 0.0, 1.0, 0.0, 0.0, 0.0, 1.0)",-0.00186976301484,-0.00382117764093,-0.00542327994481,"(1.2184696791468346e-07, 0.0, 0.0, 0.0, 1.2184696791468346e-07, 0.0, 0.0, 0.0, 1.2184696791468346e-07)",0.0,0.0,0.0,"(-1.0, 0.0, 0.0, 0.0, 8.999999999999999e-08, 0.0, 0.0, 0.0, 8.999999999999999e-08)"
1970/01/01/01:00:14.793000,205,14,793000000,base_link,0.00131061206609,-0.0025226553305,-0.696685255737,-0.717371436066,"(1.0, 0.0, 0.0, 0.0, 1.0, 0.0, 0.0, 0.0, 1.0)",0.0039975522086,-0.00321771297604,0.00521294167265,"(1.2184696791468346e-07, 0.0, 0.0, 0.0, 1.2184696791468346e-07, 0.0, 0.0, 0.0, 1.2184696791468346e-07)",0.0,0.0,0.0,"(-1.0, 0.0, 0.0, 0.0, 8.999999999999999e-08, 0.0, 0.0, 0.0, 8.999999999999999e-08)"
1970/01/01/01:00:14.813000,206,14,813000000,base_link,0.00130157732935,-0.0025507305646,-0.696686241578,-0.717370281637,"(1.0, 0.0, 0.0, 0.0, 1.0, 0.0, 0.0, 0.0, 1.0)",0.00777178863063,-0.00155411101878,-0.00554466806352,"(1.2184696791468346e-07, 0.0, 0.0, 0.0, 1.2184696791468346e-07, 0.0, 0.0, 0.0, 1.2184696791468346e-07)",0.0,0.0,0.0,"(-1.0, 0.0, 0.0, 0.0, 8.999999999999999e-08, 0.0, 0.0, 0.0, 8.999999999999999e-08)"
1970/01/01/01:00:14.833000,207,14,833000000,base_link,0.00127150090197,-0.00263963246798,-0.69666987082,-0.717385893752,"(1.0, 0.0, 0.0, 0.0, 1.0, 0.0, 0.0, 0.0, 1.0)",0.00692304782569,0.00106886029243,-0.00639060046524,"(1.2184696791468346e-07, 0.0, 0.0, 0.0, 1.2184696791468346e-07, 0.0, 0.0, 0.0, 1.2184696791468346e-07)",0.0,0.0,0.0,"(-1.0, 0.0, 0.0, 0.0, 8.999999999999999e-08, 0.0, 0.0, 0.0, 8.999999999999999e-08)"
1970/01/01/01:00:14.853000,208,14,853000000,base_link,0.00134431962558,-0.00260442223341,-0.696647769408,-0.717407489402,"(1.0, 0.0, 0.0, 0.0, 1.0, 0.0, 0.0, 0.0, 1.0)",-0.0113689955324,0.000696896982845,-0.00497542647645,"(1.2184696791468346e-07, 0.0, 0.0, 0.0, 1.2184696791468346e-07, 0.0, 0.0, 0.0, 1.2184696791468346e-07)",0.0,0.0,0.0,"(-1.0, 0.0, 0.0, 0.0, 8.999999999999999e-08, 0.0, 0.0, 0.0, 8.999999999999999e-08)"
1970/01/01/01:00:14.875000,209,14,873000000,base_link,0.00134156509853,-0.0026770144177,-0.696603803001,-0.717449769935,"(1.0, 0.0, 0.0, 0.0, 1.0, 0.0, 0.0, 0.0, 1.0)",0.00583534408361,0.00707622151822,-0.00646224431694,"(1.2184696791468346e-07, 0.0, 0.0, 0.0, 1.2184696791468346e-07, 0.0, 0.0, 0.0, 1.2184696791468346e-07)",0.0,0.0,0.0,"(-1.0, 0.0, 0.0, 0.0, 8.999999999999999e-08, 0.0, 0.0, 0.0, 8.999999999999999e-08)"
1970/01/01/01:00:14.894000,210,14,892000000,base_link,0.00127988001649,-0.00270082232455,-0.696639397332,-0.717415355716,"(1.0, 0.0, 0.0, 0.0, 1.0, 0.0, 0.0, 0.0, 1.0)",0.00359629071318,-0.00232197484002,0.00719076022506,"(1.2184696791468346e-07, 0.0, 0.0, 0.0, 1.2184696791468346e-07, 0.0, 0.0, 0.0, 1.2184696791468346e-07)",0.0,0.0,0.0,"(-1.0, 0.0, 0.0, 0.0, 8.999999999999999e-08, 0.0, 0.0, 0.0, 8.999999999999999e-08)"
1970/01/01/01:00:14.913000,211,14,913000000,base_link,0.0013781171587,-0.00269432537139,-0.696582912652,-0.717469985934,"(1.0, 0.0, 0.0, 0.0, 1.0, 0.0, 0.0, 0.0, 1.0)",-0.00913628749549,0.00675148610026,-0.0125097399577,"(1.2184696791468346e-07, 0.0, 0.0, 0.0, 1.2184696791468346e-07, 0.0, 0.0, 0.0, 1.2184696791468346e-07)",0.0,0.0,0.0,"(-1.0, 0.0, 0.0, 0.0, 8.999999999999999e-08, 0.0, 0.0, 0.0, 8.999999999999999e-08)"
1970/01/01/01:00:14.932000,212,14,933000000,base_link,0.00130957082491,-0.00281768466948,-0.696551145124,-0.717500404764,"(1.0, 0.0, 0.0, 0.0, 1.0, 0.0, 0.0, 0.0, 1.0)",0.0206230431795,-0.00027629500255,-0.00290019530803,"(1.2184696791468346e-07, 0.0, 0.0, 0.0, 1.2184696791468346e-07, 0.0, 0.0, 0.0, 1.2184696791468346e-07)",0.0,0.0,0.0,"(-1.0, 0.0, 0.0, 0.0, 8.999999999999999e-08, 0.0, 0.0, 0.0, 8.999999999999999e-08)"
1970/01/01/01:00:14.953000,213,14,953000000,base_link,0.00129743228558,-0.00285292527942,-0.696597364412,-0.717455449881,"(1.0, 0.0, 0.0, 0.0, 1.0, 0.0, 0.0, 0.0, 1.0)",0.00283780880272,-0.0019115639152,0.00225246837363,"(1.2184696791468346e-07, 0.0, 0.0, 0.0, 1.2184696791468346e-07, 0.0, 0.0, 0.0, 1.2184696791468346e-07)",0.0,0.0,0.0,"(-1.0, 0.0, 0.0, 0.0, 8.999999999999999e-08, 0.0, 0.0, 0.0, 8.999999999999999e-08)"
1970/01/01/01:00:14.974000,214,14,972000000,base_link,0.00128511198797,-0.00284829826339,-0.696591217557,-0.717461512442,"(1.0, 0.0, 0.0, 0.0, 1.0, 0.0, 0.0, 0.0, 1.0)",0.00395273137838,0.00377803226002,-0.0022174695041,"(1.2184696791468346e-07, 0.0, 0.0, 0.0, 1.2184696791468346e-07, 0.0, 0.0, 0.0, 1.2184696791468346e-07)",0.0,0.0,0.0,"(-1.0, 0.0, 0.0, 0.0, 8.999999999999999e-08, 0.0, 0.0, 0.0, 8.999999999999999e-08)"
1970/01/01/01:00:14.992000,215,14,992000000,base_link,0.00133275809472,-0.00292191983507,-0.696587792467,-0.717464347476,"(1.0, 0.0, 0.0, 0.0, 1.0, 0.0, 0.0, 0.0, 1.0)",0.00142107019201,0.0070300353691,-0.00152087421156,"(1.2184696791468346e-07, 0.0, 0.0, 0.0, 1.2184696791468346e-07, 0.0, 0.0, 0.0, 1.2184696791468346e-07)",0.0,0.0,0.0,"(-1.0, 0.0, 0.0, 0.0, 8.999999999999999e-08, 0.0, 0.0, 0.0, 8.999999999999999e-08)"
1970/01/01/01:00:15.013000,216,15,13000000,base_link,0.00140310908741,-0.00295585232866,-0.696635583701,-0.717417820648,"(1.0, 0.0, 0.0, 0.0, 1.0, 0.0, 0.0, 0.0, 1.0)",-0.000600269297138,0.00173735618591,0.00323375733569,"(1.2184696791468346e-07, 0.0, 0.0, 0.0, 1.2184696791468346e-07, 0.0, 0.0, 0.0, 1.2184696791468346e-07)",0.0,0.0,0.0,"(-1.0, 0.0, 0.0, 0.0, 8.999999999999999e-08, 0.0, 0.0, 0.0, 8.999999999999999e-08)"
1970/01/01/01:00:15.033000,217,15,33000000,base_link,0.00131539285227,-0.00307000286963,-0.696633297893,-0.717419600694,"(1.0, 0.0, 0.0, 0.0, 1.0, 0.0, 0.0, 0.0, 1.0)",0.0144321322441,-0.000410787819419,-0.00374689511955,"(1.2184696791468346e-07, 0.0, 0.0, 0.0, 1.2184696791468346e-07, 0.0, 0.0, 0.0, 1.2184696791468346e-07)",0.0,0.0,0.0,"(-1.0, 0.0, 0.0, 0.0, 8.999999999999999e-08, 0.0, 0.0, 0.0, 8.999999999999999e-08)"
1970/01/01/01:00:15.053000,218,15,53000000,base_link,0.00128587672278,-0.00303035206944,-0.696673471742,-0.717380944131,"(1.0, 0.0, 0.0, 0.0, 1.0, 0.0, 0.0, 0.0, 1.0)",-0.00230390112847,-0.00442351493984,0.00520606571808,"(1.2184696791468346e-07, 0.0, 0.0, 0.0, 1.2184696791468346e-07, 0.0, 0.0, 0.0, 1.2184696791468346e-07)",0.0,0.0,0.0,"(-1.0, 0.0, 0.0, 0.0, 8.999999999999999e-08, 0.0, 0.0, 0.0, 8.999999999999999e-08)"
1970/01/01/01:00:15.075000,219,15,75000000,base_link,0.00126208737866,-0.00300745225431,-0.69667729591,-0.717377204257,"(1.0, 0.0, 0.0, 0.0, 1.0, 0.0, 0.0, 0.0, 1.0)",0.00193785538431,0.00128523609601,-0.00315781030804,"(1.2184696791468346e-07, 0.0, 0.0, 0.0, 1.2184696791468346e-07, 0.0, 0.0, 0.0, 1.2184696791468346e-07)",0.0,0.0,0.0,"(-1.0, 0.0, 0.0, 0.0, 8.999999999999999e-08, 0.0, 0.0, 0.0, 8.999999999999999e-08)"
1970/01/01/01:00:15.093000,220,15,93000000,base_link,0.00126390570236,-0.0031429941319,-0.696728358134,-0.717327153557,"(1.0, 0.0, 0.0, 0.0, 1.0, 0.0, 0.0, 0.0, 1.0)",0.00629282975569,0.00454980973154,0.00890886131674,"(1.2184696791468346e-07, 0.0, 0.0, 0.0, 1.2184696791468346e-07, 0.0, 0.0, 0.0, 1.2184696791468346e-07)",0.0,0.0,0.0,"(-1.0, 0.0, 0.0, 0.0, 8.999999999999999e-08, 0.0, 0.0, 0.0, 8.999999999999999e-08)"
1970/01/01/01:00:15.113000,221,15,113000000,base_link,0.00113453669172,-0.00319577244063,-0.696748835575,-0.717307181878,"(1.0, 0.0, 0.0, 0.0, 1.0, 0.0, 0.0, 0.0, 1.0)",0.0167899243534,-0.00472954846919,0.00496897753328,"(1.2184696791468346e-07, 0.0, 0.0, 0.0, 1.2184696791468346e-07, 0.0, 0.0, 0.0, 1.2184696791468346e-07)",0.0,0.0,0.0,"(-1.0, 0.0, 0.0, 0.0, 8.999999999999999e-08, 0.0, 0.0, 0.0, 8.999999999999999e-08)"
1970/01/01/01:00:15.133000,222,15,133000000,base_link,0.00108621821104,-0.00323333623095,-0.696783142451,-0.717273717939,"(1.0, 0.0, 0.0, 0.0, 1.0, 0.0, 0.0, 0.0, 1.0)",0.00547519233078,-0.00393303530291,-0.00209475308657,"(1.2184696791468346e-07, 0.0, 0.0, 0.0, 1.2184696791468346e-07, 0.0, 0.0, 0.0, 1.2184696791468346e-07)",0.0,0.0,0.0,"(-1.0, 0.0, 0.0, 0.0, 8.999999999999999e-08, 0.0, 0.0, 0.0, 8.999999999999999e-08)"
1970/01/01/01:00:15.153000,223,15,153000000,base_link,0.00112114296656,-0.00319184150614,-0.696737810223,-0.717317954349,"(1.0, 0.0, 0.0, 0.0, 1.0, 0.0, 0.0, 0.0, 1.0)",-0.00526592601091,-0.00126819941215,-0.0047877766192,"(1.2184696791468346e-07, 0.0, 0.0, 0.0, 1.2184696791468346e-07, 0.0, 0.0, 0.0, 1.2184696791468346e-07)",0.0,0.0,0.0,"(-1.0, 0.0, 0.0, 0.0, 8.999999999999999e-08, 0.0, 0.0, 0.0, 8.999999999999999e-08)"
1970/01/01/01:00:15.175000,224,15,174000000,base_link,0.00124498843515,-0.00328631473721,-0.696775848413,-0.717280421922,"(1.0, 0.0, 0.0, 0.0, 1.0, 0.0, 0.0, 0.0, 1.0)",0.00630999542773,0.0165927093476,0.00785773061216,"(1.2184696791468346e-07, 0.0, 0.0, 0.0, 1.2184696791468346e-07, 0.0, 0.0, 0.0, 1.2184696791468346e-07)",0.0,0.0,0.0,"(-1.0, 0.0, 0.0, 0.0, 8.999999999999999e-08, 0.0, 0.0, 0.0, 8.999999999999999e-08)"
1970/01/01/01:00:15.193000,225,15,193000000,base_link,0.00124536586347,-0.00335183851635,-0.696780112488,-0.717275989259,"(1.0, 0.0, 0.0, 0.0, 1.0, 0.0, 0.0, 0.0, 1.0)",0.000900786370039,-0.000869650044478,0.00194213946816,"(1.2184696791468346e-07, 0.0, 0.0, 0.0, 1.2184696791468346e-07, 0.0, 0.0, 0.0, 1.2184696791468346e-07)",0.0,0.0,0.0,"(-1.0, 0.0, 0.0, 0.0, 8.999999999999999e-08, 0.0, 0.0, 0.0, 8.999999999999999e-08)"
1970/01/01/01:00:15.213000,226,15,213000000,base_link,0.0012351438533,-0.0033904036236,-0.696787119402,-0.717268982345,"(1.0, 0.0, 0.0, 0.0, 1.0, 0.0, 0.0, 0.0, 1.0)",0.00018841115525,0.0061745364219,-0.00370656349696,"(1.2184696791468346e-07, 0.0, 0.0, 0.0, 1.2184696791468346e-07, 0.0, 0.0, 0.0, 1.2184696791468346e-07)",0.0,0.0,0.0,"(-1.0, 0.0, 0.0, 0.0, 8.999999999999999e-08, 0.0, 0.0, 0.0, 8.999999999999999e-08)"
1970/01/01/01:00:15.233000,227,15,232000000,base_link,0.00122655709146,-0.00330436544218,-0.696789689042,-0.717266918467,"(1.0, 0.0, 0.0, 0.0, 1.0, 0.0, 0.0, 0.0, 1.0)",-0.00661976775154,-0.0104919821024,-0.000436174974311,"(1.2184696791468346e-07, 0.0, 0.0, 0.0, 1.2184696791468346e-07, 0.0, 0.0, 0.0, 1.2184696791468346e-07)",0.0,0.0,0.0,"(-1.0, 0.0, 0.0, 0.0, 8.999999999999999e-08, 0.0, 0.0, 0.0, 8.999999999999999e-08)"
1970/01/01/01:00:15.253000,228,15,253000000,base_link,0.00123063611614,-0.00332207798454,-0.69682557445,-0.71723196029,"(1.0, 0.0, 0.0, 0.0, 1.0, 0.0, 0.0, 0.0, 1.0)",0.000244219438173,0.00363149354234,0.00307236239314,"(1.2184696791468346e-07, 0.0, 0.0, 0.0, 1.2184696791468346e-07, 0.0, 0.0, 0.0, 1.2184696791468346e-07)",0.0,0.0,0.0,"(-1.0, 0.0, 0.0, 0.0, 8.999999999999999e-08, 0.0, 0.0, 0.0, 8.999999999999999e-08)"
1970/01/01/01:00:15.275000,229,15,274000000,base_link,0.00119518172619,-0.00340829924133,-0.696820323216,-0.717236705762,"(1.0, 0.0, 0.0, 0.0, 1.0, 0.0, 0.0, 0.0, 1.0)",0.00864677503705,0.000966196181253,-0.00145496753976,"(1.2184696791468346e-07, 0.0, 0.0, 0.0, 1.2184696791468346e-07, 0.0, 0.0, 0.0, 1.2184696791468346e-07)",0.0,0.0,0.0,"(-1.0, 0.0, 0.0, 0.0, 8.999999999999999e-08, 0.0, 0.0, 0.0, 8.999999999999999e-08)"
1970/01/01/01:00:15.293000,230,15,293000000,base_link,0.00118282265677,-0.00342125100081,-0.696819405863,-0.717237454527,"(1.0, 0.0, 0.0, 0.0, 1.0, 0.0, 0.0, 0.0, 1.0)",-0.00480976048857,0.00058295018971,-0.00321599538438,"(1.2184696791468346e-07, 0.0, 0.0, 0.0, 1.2184696791468346e-07, 0.0, 0.0, 0.0, 1.2184696791468346e-07)",0.0,0.0,0.0,"(-1.0, 0.0, 0.0, 0.0, 8.999999999999999e-08, 0.0, 0.0, 0.0, 8.999999999999999e-08)"
1970/01/01/01:00:15.313000,231,15,313000000,base_link,0.00121948448808,-0.00341974688515,-0.696807456573,-0.717249066642,"(1.0, 0.0, 0.0, 0.0, 1.0, 0.0, 0.0, 0.0, 1.0)",-0.00347472704016,0.00190908415243,-0.00189111893997,"(1.2184696791468346e-07, 0.0, 0.0, 0.0, 1.2184696791468346e-07, 0.0, 0.0, 0.0, 1.2184696791468346e-07)",0.0,0.0,0.0,"(-1.0, 0.0, 0.0, 0.0, 8.999999999999999e-08, 0.0, 0.0, 0.0, 8.999999999999999e-08)"
1970/01/01/01:00:15.334000,232,15,333000000,base_link,0.0012963545775,-0.00342669271871,-0.696835590912,-0.717221690947,"(1.0, 0.0, 0.0, 0.0, 1.0, 0.0, 0.0, 0.0, 1.0)",-0.00698284991086,0.00356680341065,0.00680263713002,"(1.2184696791468346e-07, 0.0, 0.0, 0.0, 1.2184696791468346e-07, 0.0, 0.0, 0.0, 1.2184696791468346e-07)",0.0,0.0,0.0,"(-1.0, 0.0, 0.0, 0.0, 8.999999999999999e-08, 0.0, 0.0, 0.0, 8.999999999999999e-08)"
1970/01/01/01:00:15.353000,233,15,353000000,base_link,0.00136136749073,-0.00344975782852,-0.696866019619,-0.717191768002,"(1.0, 0.0, 0.0, 0.0, 1.0, 0.0, 0.0, 0.0, 1.0)",-0.00412882398814,0.00756323430687,-0.00120746879838,"(1.2184696791468346e-07, 0.0, 0.0, 0.0, 1.2184696791468346e-07, 0.0, 0.0, 0.0, 1.2184696791468346e-07)",0.0,0.0,0.0,"(-1.0, 0.0, 0.0, 0.0, 8.999999999999999e-08, 0.0, 0.0, 0.0, 8.999999999999999e-08)"
1970/01/01/01:00:15.374000,234,15,374000000,base_link,0.00135415412346,-0.00346117468538,-0.696847502006,-0.717209779853,"(1.0, 0.0, 0.0, 0.0, 1.0, 0.0, 0.0, 0.0, 1.0)",0.00377073115669,8.82386302692e-05,-0.0073843980208,"(1.2184696791468346e-07, 0.0, 0.0, 0.0, 1.2184696791468346e-07, 0.0, 0.0, 0.0, 1.2184696791468346e-07)",0.0,0.0,0.0,"(-1.0, 0.0, 0.0, 0.0, 8.999999999999999e-08, 0.0, 0.0, 0.0, 8.999999999999999e-08)"
1970/01/01/01:00:15.393000,235,15,393000000,base_link,0.00122843567198,-0.00342612398321,-0.696811111495,-0.717245496014,"(1.0, 0.0, 0.0, 0.0, 1.0, 0.0, 0.0, 0.0, 1.0)",0.00460580550134,-0.0101154185832,-0.00314919347875,"(1.2184696791468346e-07, 0.0, 0.0, 0.0, 1.2184696791468346e-07, 0.0, 0.0, 0.0, 1.2184696791468346e-07)",0.0,0.0,0.0,"(-1.0, 0.0, 0.0, 0.0, 8.999999999999999e-08, 0.0, 0.0, 0.0, 8.999999999999999e-08)"
1970/01/01/01:00:15.413000,236,15,413000000,base_link,0.00120351280812,-0.00341488024124,-0.696842055185,-0.717215479555,"(1.0, 0.0, 0.0, 0.0, 1.0, 0.0, 0.0, 0.0, 1.0)",0.00117260566913,-0.0035751038231,0.00527604483068,"(1.2184696791468346e-07, 0.0, 0.0, 0.0, 1.2184696791468346e-07, 0.0, 0.0, 0.0, 1.2184696791468346e-07)",0.0,0.0,0.0,"(-1.0, 0.0, 0.0, 0.0, 8.999999999999999e-08, 0.0, 0.0, 0.0, 8.999999999999999e-08)"
1970/01/01/01:00:15.433000,237,15,433000000,base_link,0.00128980173037,-0.00347747901263,-0.696863574443,-0.717194128884,"(1.0, 0.0, 0.0, 0.0, 1.0, 0.0, 0.0, 0.0, 1.0)",0.00044991960749,0.010787948966,0.00155920570251,"(1.2184696791468346e-07, 0.0, 0.0, 0.0, 1.2184696791468346e-07, 0.0, 0.0, 0.0, 1.2184696791468346e-07)",0.0,0.0,0.0,"(-1.0, 0.0, 0.0, 0.0, 8.999999999999999e-08, 0.0, 0.0, 0.0, 8.999999999999999e-08)"
1970/01/01/01:00:15.453000,238,15,453000000,base_link,0.0013591480311,-0.00354611293284,-0.696878786822,-0.717178916506,"(1.0, 0.0, 0.0, 0.0, 1.0, 0.0, 0.0, 0.0, 1.0)",-0.00494086975232,0.00782661233097,-0.00354170496576,"(1.2184696791468346e-07, 0.0, 0.0, 0.0, 1.2184696791468346e-07, 0.0, 0.0, 0.0, 1.2184696791468346e-07)",0.0,0.0,0.0,"(-1.0, 0.0, 0.0, 0.0, 8.999999999999999e-08, 0.0, 0.0, 0.0, 8.999999999999999e-08)"
1970/01/01/01:00:15.475000,239,15,475000000,base_link,0.00137717297051,-0.00352975081831,-0.696890906675,-0.717167133827,"(1.0, 0.0, 0.0, 0.0, 1.0, 0.0, 0.0, 0.0, 1.0)",0.0020486661233,-0.00262022018433,0.00294166011736,"(1.2184696791468346e-07, 0.0, 0.0, 0.0, 1.2184696791468346e-07, 0.0, 0.0, 0.0, 1.2184696791468346e-07)",0.0,0.0,0.0,"(-1.0, 0.0, 0.0, 0.0, 8.999999999999999e-08, 0.0, 0.0, 0.0, 8.999999999999999e-08)"
1970/01/01/01:00:15.493000,240,15,493000000,base_link,0.00136062086589,-0.00354073591693,-0.696881824687,-0.717176047227,"(1.0, 0.0, 0.0, 0.0, 1.0, 0.0, 0.0, 0.0, 1.0)",0.00504180602729,-0.000367178872693,-0.000822180823889,"(1.2184696791468346e-07, 0.0, 0.0, 0.0, 1.2184696791468346e-07, 0.0, 0.0, 0.0, 1.2184696791468346e-07)",0.0,0.0,0.0,"(-1.0, 0.0, 0.0, 0.0, 8.999999999999999e-08, 0.0, 0.0, 0.0, 8.999999999999999e-08)"
1970/01/01/01:00:15.513000,241,15,513000000,base_link,0.00131534527243,-0.0035318119803,-0.6969043693,-0.717154261258,"(1.0, 0.0, 0.0, 0.0, 1.0, 0.0, 0.0, 0.0, 1.0)",0.00623340671882,-0.00303803756833,0.0056965528056,"(1.2184696791468346e-07, 0.0, 0.0, 0.0, 1.2184696791468346e-07, 0.0, 0.0, 0.0, 1.2184696791468346e-07)",0.0,0.0,0.0,"(-1.0, 0.0, 0.0, 0.0, 8.999999999999999e-08, 0.0, 0.0, 0.0, 8.999999999999999e-08)"
1970/01/01/01:00:15.533000,242,15,533000000,base_link,0.00134745376237,-0.0035982770665,-0.696947308378,-0.717112165117,"(1.0, 0.0, 0.0, 0.0, 1.0, 0.0, 0.0, 0.0, 1.0)",-0.000661660451442,0.0047972695902,0.00636553252116,"(1.2184696791468346e-07, 0.0, 0.0, 0.0, 1.2184696791468346e-07, 0.0, 0.0, 0.0, 1.2184696791468346e-07)",0.0,0.0,0.0,"(-1.0, 0.0, 0.0, 0.0, 8.999999999999999e-08, 0.0, 0.0, 0.0, 8.999999999999999e-08)"
1970/01/01/01:00:15.553000,243,15,552000000,base_link,0.00130226114551,-0.00369346308968,-0.696921633703,-0.71713665968,"(1.0, 0.0, 0.0, 0.0, 1.0, 0.0, 0.0, 0.0, 1.0)",0.00412804447114,-0.000745896366425,-0.00727023463696,"(1.2184696791468346e-07, 0.0, 0.0, 0.0, 1.2184696791468346e-07, 0.0, 0.0, 0.0, 1.2184696791468346e-07)",0.0,0.0,0.0,"(-1.0, 0.0, 0.0, 0.0, 8.999999999999999e-08, 0.0, 0.0, 0.0, 8.999999999999999e-08)"
1970/01/01/01:00:15.575000,244,15,574000000,base_link,0.00125420303686,-0.00370115505417,-0.696944491783,-0.717114560244,"(1.0, 0.0, 0.0, 0.0, 1.0, 0.0, 0.0, 0.0, 1.0)",0.00572062609717,-0.00360608450137,0.00657324492931,"(1.2184696791468346e-07, 0.0, 0.0, 0.0, 1.2184696791468346e-07, 0.0, 0.0, 0.0, 1.2184696791468346e-07)",0.0,0.0,0.0,"(-1.0, 0.0, 0.0, 0.0, 8.999999999999999e-08, 0.0, 0.0, 0.0, 8.999999999999999e-08)"
1970/01/01/01:00:15.593000,245,15,593000000,base_link,0.00126034824493,-0.00377138059414,-0.696983087101,-0.717076639275,"(1.0, 0.0, 0.0, 0.0, 1.0, 0.0, 0.0, 0.0, 1.0)",0.00217869365588,0.000975518720225,0.00843455269933,"(1.2184696791468346e-07, 0.0, 0.0, 0.0, 1.2184696791468346e-07, 0.0, 0.0, 0.0, 1.2184696791468346e-07)",0.0,0.0,0.0,"(-1.0, 0.0, 0.0, 0.0, 8.999999999999999e-08, 0.0, 0.0, 0.0, 8.999999999999999e-08)"
1970/01/01/01:00:15.613000,246,15,613000000,base_link,0.00124768805604,-0.00372914517139,-0.697010045937,-0.717050691963,"(1.0, 0.0, 0.0, 0.0, 1.0, 0.0, 0.0, 0.0, 1.0)",-0.00718059949577,-0.00814216025174,-0.00210930150934,"(1.2184696791468346e-07, 0.0, 0.0, 0.0, 1.2184696791468346e-07, 0.0, 0.0, 0.0, 1.2184696791468346e-07)",0.0,0.0,0.0,"(-1.0, 0.0, 0.0, 0.0, 8.999999999999999e-08, 0.0, 0.0, 0.0, 8.999999999999999e-08)"
1970/01/01/01:00:15.633000,247,15,632000000,base_link,0.00123816418536,-0.00373306713321,-0.696959461817,-0.717099843091,"(1.0, 0.0, 0.0, 0.0, 1.0, 0.0, 0.0, 0.0, 1.0)",0.000533993996214,0.00142741308082,-0.000572797260247,"(1.2184696791468346e-07, 0.0, 0.0, 0.0, 1.2184696791468346e-07, 0.0, 0.0, 0.0, 1.2184696791468346e-07)",0.0,0.0,0.0,"(-1.0, 0.0, 0.0, 0.0, 8.999999999999999e-08, 0.0, 0.0, 0.0, 8.999999999999999e-08)"
1970/01/01/01:00:15.653000,248,15,652000000,base_link,0.00125713998072,-0.00381052233942,-0.696939620529,-0.71711858856,"(1.0, 0.0, 0.0, 0.0, 1.0, 0.0, 0.0, 0.0, 1.0)",0.00441612442955,0.00538911111653,-0.00367679889314,"(1.2184696791468346e-07, 0.0, 0.0, 0.0, 1.2184696791468346e-07, 0.0, 0.0, 0.0, 1.2184696791468346e-07)",0.0,0.0,0.0,"(-1.0, 0.0, 0.0, 0.0, 8.999999999999999e-08, 0.0, 0.0, 0.0, 8.999999999999999e-08)"
1970/01/01/01:00:15.679000,249,15,673000000,base_link,0.00117165670537,-0.00385859304274,-0.696909001502,-0.71714836465,"(1.0, 0.0, 0.0, 0.0, 1.0, 0.0, 0.0, 0.0, 1.0)",0.0119241327047,-0.00536442408338,-0.00637174537405,"(1.2184696791468346e-07, 0.0, 0.0, 0.0, 1.2184696791468346e-07, 0.0, 0.0, 0.0, 1.2184696791468346e-07)",0.0,0.0,0.0,"(-1.0, 0.0, 0.0, 0.0, 8.999999999999999e-08, 0.0, 0.0, 0.0, 8.999999999999999e-08)"
1970/01/01/01:00:15.693000,250,15,693000000,base_link,0.00124417019359,-0.00378226230127,-0.696885448658,-0.717171411732,"(1.0, 0.0, 0.0, 0.0, 1.0, 0.0, 0.0, 0.0, 1.0)",-0.00852354243398,-0.0052144182846,0.000661793106701,"(1.2184696791468346e-07, 0.0, 0.0, 0.0, 1.2184696791468346e-07, 0.0, 0.0, 0.0, 1.2184696791468346e-07)",0.0,0.0,0.0,"(-1.0, 0.0, 0.0, 0.0, 8.999999999999999e-08, 0.0, 0.0, 0.0, 8.999999999999999e-08)"
1970/01/01/01:00:15.714000,251,15,713000000,base_link,0.0013026047411,-0.00384050636478,-0.696952282364,-0.717106179606,"(1.0, 0.0, 0.0, 0.0, 1.0, 0.0, 0.0, 0.0, 1.0)",0.000108918640763,0.0117528839037,0.00679326895624,"(1.2184696791468346e-07, 0.0, 0.0, 0.0, 1.2184696791468346e-07, 0.0, 0.0, 0.0, 1.2184696791468346e-07)",0.0,0.0,0.0,"(-1.0, 0.0, 0.0, 0.0, 8.999999999999999e-08, 0.0, 0.0, 0.0, 8.999999999999999e-08)"
1970/01/01/01:00:15.733000,252,15,733000000,base_link,0.00127860005292,-0.00385533917432,-0.696944229682,-0.717113895114,"(1.0, 0.0, 0.0, 0.0, 1.0, 0.0, 0.0, 0.0, 1.0)",-0.00165508850478,0.000982366269454,-0.0056329658255,"(1.2184696791468346e-07, 0.0, 0.0, 0.0, 1.2184696791468346e-07, 0.0, 0.0, 0.0, 1.2184696791468346e-07)",0.0,0.0,0.0,"(-1.0, 0.0, 0.0, 0.0, 8.999999999999999e-08, 0.0, 0.0, 0.0, 8.999999999999999e-08)"
1970/01/01/01:00:15.753000,253,15,753000000,base_link,0.00132101031924,-0.00381797401749,-0.696990574752,-0.717068983037,"(1.0, 0.0, 0.0, 0.0, 1.0, 0.0, 0.0, 0.0, 1.0)",-0.00228812079877,0.00288923596963,0.0106831565499,"(1.2184696791468346e-07, 0.0, 0.0, 0.0, 1.2184696791468346e-07, 0.0, 0.0, 0.0, 1.2184696791468346e-07)",0.0,0.0,0.0,"(-1.0, 0.0, 0.0, 0.0, 8.999999999999999e-08, 0.0, 0.0, 0.0, 8.999999999999999e-08)"
1970/01/01/01:00:15.775000,254,15,772000000,base_link,0.00137726804788,-0.00391797737606,-0.69705363434,-0.717007103561,"(1.0, 0.0, 0.0, 0.0, 1.0, 0.0, 0.0, 0.0, 1.0)",0.00427666725591,0.00729701854289,0.0037254774943,"(1.2184696791468346e-07, 0.0, 0.0, 0.0, 1.2184696791468346e-07, 0.0, 0.0, 0.0, 1.2184696791468346e-07)",0.0,0.0,0.0,"(-1.0, 0.0, 0.0, 0.0, 8.999999999999999e-08, 0.0, 0.0, 0.0, 8.999999999999999e-08)"
1970/01/01/01:00:15.793000,255,15,793000000,base_link,0.0014197298453,-0.00402241084586,-0.697034084129,-0.717025389366,"(1.0, 0.0, 0.0, 0.0, 1.0, 0.0, 0.0, 0.0, 1.0)",0.00177544937469,0.00894560758024,-0.00341131491587,"(1.2184696791468346e-07, 0.0, 0.0, 0.0, 1.2184696791468346e-07, 0.0, 0.0, 0.0, 1.2184696791468346e-07)",0.0,0.0,0.0,"(-1.0, 0.0, 0.0, 0.0, 8.999999999999999e-08, 0.0, 0.0, 0.0, 8.999999999999999e-08)"
1970/01/01/01:00:15.813000,256,15,813000000,base_link,0.00150311145818,-0.00395230713663,-0.697092796006,-0.71696853195,"(1.0, 0.0, 0.0, 0.0, 1.0, 0.0, 0.0, 0.0, 1.0)",-0.0127810137346,-0.0021746493876,0.0111695937812,"(1.2184696791468346e-07, 0.0, 0.0, 0.0, 1.2184696791468346e-07, 0.0, 0.0, 0.0, 1.2184696791468346e-07)",0.0,0.0,0.0,"(-1.0, 0.0, 0.0, 0.0, 8.999999999999999e-08, 0.0, 0.0, 0.0, 8.999999999999999e-08)"
1970/01/01/01:00:15.833000,257,15,831000000,base_link,0.00146839727225,-0.00397838977968,-0.697078613592,-0.716982124309,"(1.0, 0.0, 0.0, 0.0, 1.0, 0.0, 0.0, 0.0, 1.0)",0.00626479787752,-0.000700882519595,-0.00314157013781,"(1.2184696791468346e-07, 0.0, 0.0, 0.0, 1.2184696791468346e-07, 0.0, 0.0, 0.0, 1.2184696791468346e-07)",0.0,0.0,0.0,"(-1.0, 0.0, 0.0, 0.0, 8.999999999999999e-08, 0.0, 0.0, 0.0, 8.999999999999999e-08)"
1970/01/01/01:00:15.853000,258,15,853000000,base_link,0.00153522595733,-0.00395828647381,-0.697045635,-0.717014259964,"(1.0, 0.0, 0.0, 0.0, 1.0, 0.0, 0.0, 0.0, 1.0)",-0.00956970825791,0.000501166156027,-0.00578929064795,"(1.2184696791468346e-07, 0.0, 0.0, 0.0, 1.2184696791468346e-07, 0.0, 0.0, 0.0, 1.2184696791468346e-07)",0.0,0.0,0.0,"(-1.0, 0.0, 0.0, 0.0, 8.999999999999999e-08, 0.0, 0.0, 0.0, 8.999999999999999e-08)"
1970/01/01/01:00:15.875000,259,15,874000000,base_link,0.00151161631354,-0.00397982499512,-0.696964270509,-0.717093348525,"(1.0, 0.0, 0.0, 0.0, 1.0, 0.0, 0.0, 0.0, 1.0)",0.001435627928,0.000198253110284,-0.00846146605909,"(1.2184696791468346e-07, 0.0, 0.0, 0.0, 1.2184696791468346e-07, 0.0, 0.0, 0.0, 1.2184696791468346e-07)",0.0,0.0,0.0,"(-1.0, 0.0, 0.0, 0.0, 8.999999999999999e-08, 0.0, 0.0, 0.0, 8.999999999999999e-08)"
1970/01/01/01:00:15.893000,260,15,893000000,base_link,0.00140379874815,-0.00397871435981,-0.696977276763,-0.717080763739,"(1.0, 0.0, 0.0, 0.0, 1.0, 0.0, 0.0, 0.0, 1.0)",0.0055588199757,-0.0121829696,0.00634765531868,"(1.2184696791468346e-07, 0.0, 0.0, 0.0, 1.2184696791468346e-07, 0.0, 0.0, 0.0, 1.2184696791468346e-07)",0.0,0.0,0.0,"(-1.0, 0.0, 0.0, 0.0, 8.999999999999999e-08, 0.0, 0.0, 0.0, 8.999999999999999e-08)"
1970/01/01/01:00:15.913000,261,15,913000000,base_link,0.00140287966697,-0.00393342897049,-0.696967815454,-0.717090309342,"(1.0, 0.0, 0.0, 0.0, 1.0, 0.0, 0.0, 0.0, 1.0)",-0.00417780643329,-0.00105187518056,0.000310208823066,"(1.2184696791468346e-07, 0.0, 0.0, 0.0, 1.2184696791468346e-07, 0.0, 0.0, 0.0, 1.2184696791468346e-07)",0.0,0.0,0.0,"(-1.0, 0.0, 0.0, 0.0, 8.999999999999999e-08, 0.0, 0.0, 0.0, 8.999999999999999e-08)"
1970/01/01/01:00:15.933000,262,15,933000000,base_link,0.00153870677665,-0.00398099695739,-0.696935292575,-0.717121314935,"(1.0, 0.0, 0.0, 0.0, 1.0, 0.0, 0.0, 0.0, 1.0)",-0.00848801620305,0.0169972218573,-0.00382487196475,"(1.2184696791468346e-07, 0.0, 0.0, 0.0, 1.2184696791468346e-07, 0.0, 0.0, 0.0, 1.2184696791468346e-07)",0.0,0.0,0.0,"(-1.0, 0.0, 0.0, 0.0, 8.999999999999999e-08, 0.0, 0.0, 0.0, 8.999999999999999e-08)"
1970/01/01/01:00:15.953000,263,15,953000000,base_link,0.00149401737011,-0.00394405154036,-0.696939300476,-0.717117728501,"(1.0, 0.0, 0.0, 0.0, 1.0, 0.0, 0.0, 0.0, 1.0)",0.000322785024764,-0.00606974773109,0.00628804601729,"(1.2184696791468346e-07, 0.0, 0.0, 0.0, 1.2184696791468346e-07, 0.0, 0.0, 0.0, 1.2184696791468346e-07)",0.0,0.0,0.0,"(-1.0, 0.0, 0.0, 0.0, 8.999999999999999e-08, 0.0, 0.0, 0.0, 8.999999999999999e-08)"
1970/01/01/01:00:15.973000,264,15,973000000,base_link,0.00154706551745,-0.00390307945293,-0.696937981412,-0.717119216153,"(1.0, 0.0, 0.0, 0.0, 1.0, 0.0, 0.0, 0.0, 1.0)",-0.0101695023477,0.0018592569977,0.000855640217196,"(1.2184696791468346e-07, 0.0, 0.0, 0.0, 1.2184696791468346e-07, 0.0, 0.0, 0.0, 1.2184696791468346e-07)",0.0,0.0,0.0,"(-1.0, 0.0, 0.0, 0.0, 8.999999999999999e-08, 0.0, 0.0, 0.0, 8.999999999999999e-08)"
1970/01/01/01:00:15.993000,265,15,993000000,base_link,0.00158228052647,-0.00388263065814,-0.696952258657,-0.717105360377,"(1.0, 0.0, 0.0, 0.0, 1.0, 0.0, 0.0, 0.0, 1.0)",-0.00365849211812,-0.00124170584604,0.00204245722853,"(1.2184696791468346e-07, 0.0, 0.0, 0.0, 1.2184696791468346e-07, 0.0, 0.0, 0.0, 1.2184696791468346e-07)",0.0,0.0,0.0,"(-1.0, 0.0, 0.0, 0.0, 8.999999999999999e-08, 0.0, 0.0, 0.0, 8.999999999999999e-08)"
1970/01/01/01:00:16.014000,266,16,13000000,base_link,0.00161744548611,-0.00387817362891,-0.696980414069,-0.717077963608,"(1.0, 0.0, 0.0, 0.0, 1.0, 0.0, 0.0, 0.0, 1.0)",-0.00343981734477,0.000873203272931,0.00222555850632,"(1.2184696791468346e-07, 0.0, 0.0, 0.0, 1.2184696791468346e-07, 0.0, 0.0, 0.0, 1.2184696791468346e-07)",0.0,0.0,0.0,"(-1.0, 0.0, 0.0, 0.0, 8.999999999999999e-08, 0.0, 0.0, 0.0, 8.999999999999999e-08)"
1970/01/01/01:00:16.033000,267,16,33000000,base_link,0.00158923113448,-0.00383546932248,-0.696989838499,-0.71706904494,"(1.0, 0.0, 0.0, 0.0, 1.0, 0.0, 0.0, 0.0, 1.0)",-0.00350317987613,-0.00977602228522,0.00363121158443,"(1.2184696791468346e-07, 0.0, 0.0, 0.0, 1.2184696791468346e-07, 0.0, 0.0, 0.0, 1.2184696791468346e-07)",0.0,0.0,0.0,"(-1.0, 0.0, 0.0, 0.0, 8.999999999999999e-08, 0.0, 0.0, 0.0, 8.999999999999999e-08)"
1970/01/01/01:00:16.053000,268,16,53000000,base_link,0.00161361942484,-0.0037986822854,-0.696973533596,-0.717085012669,"(1.0, 0.0, 0.0, 0.0, 1.0, 0.0, 0.0, 0.0, 1.0)",-0.00803371611983,-0.00412014871836,-0.00291256210767,"(1.2184696791468346e-07, 0.0, 0.0, 0.0, 1.2184696791468346e-07, 0.0, 0.0, 0.0, 1.2184696791468346e-07)",0.0,0.0,0.0,"(-1.0, 0.0, 0.0, 0.0, 8.999999999999999e-08, 0.0, 0.0, 0.0, 8.999999999999999e-08)"
1970/01/01/01:00:16.076000,269,16,75000000,base_link,0.00163603932566,-0.0038766054698,-0.696987478934,-0.71707106733,"(1.0, 0.0, 0.0, 0.0, 1.0, 0.0, 0.0, 0.0, 1.0)",0.00517376372591,0.00740891834721,0.00253970781341,"(1.2184696791468346e-07, 0.0, 0.0, 0.0, 1.2184696791468346e-07, 0.0, 0.0, 0.0, 1.2184696791468346e-07)",0.0,0.0,0.0,"(-1.0, 0.0, 0.0, 0.0, 8.999999999999999e-08, 0.0, 0.0, 0.0, 8.999999999999999e-08)"
1970/01/01/01:00:16.094000,270,16,93000000,base_link,0.00165221548368,-0.00382841581689,-0.696931829289,-0.717125283982,"(1.0, 0.0, 0.0, 0.0, 1.0, 0.0, 0.0, 0.0, 1.0)",-0.00312520004809,-0.00380078074522,-0.00732290185988,"(1.2184696791468346e-07, 0.0, 0.0, 0.0, 1.2184696791468346e-07, 0.0, 0.0, 0.0, 1.2184696791468346e-07)",0.0,0.0,0.0,"(-1.0, 0.0, 0.0, 0.0, 8.999999999999999e-08, 0.0, 0.0, 0.0, 8.999999999999999e-08)"
1970/01/01/01:00:16.112000,271,16,112000000,base_link,0.00158638762161,-0.00386529208675,-0.696919216186,-0.717137475617,"(1.0, 0.0, 0.0, 0.0, 1.0, 0.0, 0.0, 0.0, 1.0)",0.01059831772,-0.000217430759221,0.00114907324314,"(1.2184696791468346e-07, 0.0, 0.0, 0.0, 1.2184696791468346e-07, 0.0, 0.0, 0.0, 1.2184696791468346e-07)",0.0,0.0,0.0,"(-1.0, 0.0, 0.0, 0.0, 8.999999999999999e-08, 0.0, 0.0, 0.0, 8.999999999999999e-08)"
1970/01/01/01:00:16.133000,272,16,133000000,base_link,0.00161362633955,-0.00394368917624,-0.696899639633,-0.717156124939,"(1.0, 0.0, 0.0, 0.0, 1.0, 0.0, 0.0, 0.0, 1.0)",-0.00133679737337,0.00438423827291,-0.00769996223971,"(1.2184696791468346e-07, 0.0, 0.0, 0.0, 1.2184696791468346e-07, 0.0, 0.0, 0.0, 1.2184696791468346e-07)",0.0,0.0,0.0,"(-1.0, 0.0, 0.0, 0.0, 8.999999999999999e-08, 0.0, 0.0, 0.0, 8.999999999999999e-08)"
1970/01/01/01:00:16.154000,273,16,152000000,base_link,0.00160098244964,-0.00396504758563,-0.696910377202,-0.717145471664,"(1.0, 0.0, 0.0, 0.0, 1.0, 0.0, 0.0, 0.0, 1.0)",0.00436414219439,0.00105378427543,0.00422775698826,"(1.2184696791468346e-07, 0.0, 0.0, 0.0, 1.2184696791468346e-07, 0.0, 0.0, 0.0, 1.2184696791468346e-07)",0.0,0.0,0.0,"(-1.0, 0.0, 0.0, 0.0, 8.999999999999999e-08, 0.0, 0.0, 0.0, 8.999999999999999e-08)"
1970/01/01/01:00:16.176000,274,16,175000000,base_link,0.00155503341209,-0.00397369139389,-0.696948769688,-0.71710825929,"(1.0, 0.0, 0.0, 0.0, 1.0, 0.0, 0.0, 0.0, 1.0)",0.0117479693145,-0.00706937070936,0.00199010968208,"(1.2184696791468346e-07, 0.0, 0.0, 0.0, 1.2184696791468346e-07, 0.0, 0.0, 0.0, 1.2184696791468346e-07)",0.0,0.0,0.0,"(-1.0, 0.0, 0.0, 0.0, 8.999999999999999e-08, 0.0, 0.0, 0.0, 8.999999999999999e-08)"
1970/01/01/01:00:16.193000,275,16,191000000,base_link,0.00140794930723,-0.00396556841202,-0.696939183256,-0.717117930016,"(1.0, 0.0, 0.0, 0.0, 1.0, 0.0, 0.0, 0.0, 1.0)",0.00871872156858,-0.0153704090044,-0.000697207520716,"(1.2184696791468346e-07, 0.0, 0.0, 0.0, 1.2184696791468346e-07, 0.0, 0.0, 0.0, 1.2184696791468346e-07)",0.0,0.0,0.0,"(-1.0, 0.0, 0.0, 0.0, 8.999999999999999e-08, 0.0, 0.0, 0.0, 8.999999999999999e-08)"
1970/01/01/01:00:16.213000,276,16,213000000,base_link,0.00135662769895,-0.00399809351368,-0.696931243184,-0.717125617206,"(1.0, 0.0, 0.0, 0.0, 1.0, 0.0, 0.0, 0.0, 1.0)",0.007125351578,-0.00269340421073,-0.00353384809569,"(1.2184696791468346e-07, 0.0, 0.0, 0.0, 1.2184696791468346e-07, 0.0, 0.0, 0.0, 1.2184696791468346e-07)",0.0,0.0,0.0,"(-1.0, 0.0, 0.0, 0.0, 8.999999999999999e-08, 0.0, 0.0, 0.0, 8.999999999999999e-08)"
1970/01/01/01:00:16.233000,277,16,233000000,base_link,0.00141518448879,-0.00403595718871,-0.696908927745,-0.717147005414,"(1.0, 0.0, 0.0, 0.0, 1.0, 0.0, 0.0, 0.0, 1.0)",-0.000783873721957,0.00466963695362,-0.00528806075454,"(1.2184696791468346e-07, 0.0, 0.0, 0.0, 1.2184696791468346e-07, 0.0, 0.0, 0.0, 1.2184696791468346e-07)",0.0,0.0,0.0,"(-1.0, 0.0, 0.0, 0.0, 8.999999999999999e-08, 0.0, 0.0, 0.0, 8.999999999999999e-08)"
1970/01/01/01:00:16.253000,278,16,253000000,base_link,0.00135535991846,-0.00402877452608,-0.696990505605,-0.717067872072,"(1.0, 0.0, 0.0, 0.0, 1.0, 0.0, 0.0, 0.0, 1.0)",-0.00490792654455,-0.00323366792873,0.00437034247443,"(1.2184696791468346e-07, 0.0, 0.0, 0.0, 1.2184696791468346e-07, 0.0, 0.0, 0.0, 1.2184696791468346e-07)",0.0,0.0,0.0,"(-1.0, 0.0, 0.0, 0.0, 8.999999999999999e-08, 0.0, 0.0, 0.0, 8.999999999999999e-08)"
1970/01/01/01:00:16.275000,279,16,275000000,base_link,0.00128322073046,-0.00400360981175,-0.697005953742,-0.717053182578,"(1.0, 0.0, 0.0, 0.0, 1.0, 0.0, 0.0, 0.0, 1.0)",0.000643521780148,-0.00840084441006,0.000798083492555,"(1.2184696791468346e-07, 0.0, 0.0, 0.0, 1.2184696791468346e-07, 0.0, 0.0, 0.0, 1.2184696791468346e-07)",0.0,0.0,0.0,"(-1.0, 0.0, 0.0, 0.0, 8.999999999999999e-08, 0.0, 0.0, 0.0, 8.999999999999999e-08)"
1970/01/01/01:00:16.293000,280,16,293000000,base_link,0.00128301913353,-0.00401876036902,-0.697063098941,-0.716997470372,"(1.0, 0.0, 0.0, 0.0, 1.0, 0.0, 0.0, 0.0, 1.0)",0.00259448611178,0.000537349260412,0.0059649227187,"(1.2184696791468346e-07, 0.0, 0.0, 0.0, 1.2184696791468346e-07, 0.0, 0.0, 0.0, 1.2184696791468346e-07)",0.0,0.0,0.0,"(-1.0, 0.0, 0.0, 0.0, 8.999999999999999e-08, 0.0, 0.0, 0.0, 8.999999999999999e-08)"
1970/01/01/01:00:16.313000,281,16,313000000,base_link,0.00122869439766,-0.00399311606965,-0.697089594163,-0.716971818087,"(1.0, 0.0, 0.0, 0.0, 1.0, 0.0, 0.0, 0.0, 1.0)",0.00126727670431,-0.00699114566669,0.00129591056611,"(1.2184696791468346e-07, 0.0, 0.0, 0.0, 1.2184696791468346e-07, 0.0, 0.0, 0.0, 1.2184696791468346e-07)",0.0,0.0,0.0,"(-1.0, 0.0, 0.0, 0.0, 8.999999999999999e-08, 0.0, 0.0, 0.0, 8.999999999999999e-08)"
